Time (s),Acceleration x (m/s^2),Acceleration y (m/s^2),Acceleration z (m/s^2),Absolute acceleration (m/s^2)
0.01610875,-2.755619659,6.231691132,6.248605957,9.24513334
0.02612175,-3.177592163,5.463787994,7.769143982,10.0154715
0.03613575,-3.371738434,4.747377777,8.981023865,10.70350436
0.04614875,-3.245999908,3.883823547,9.083710327,10.39876887
0.05616275,-2.881507874,3.612886963,8.202193451,9.414457883
0.06617575,-3.264411621,3.660188599,7.734565887,9.158431813
0.07618975,-3.461252289,3.648512878,7.414980469,8.959567455
0.08620275,-3.526366882,3.643423462,7.204069061,8.809563494
0.09621575,-3.199297028,3.5500177,6.796466675,8.308434654
0.10622975,-2.350412292,3.470982056,6.736890564,7.934598216
0.11624275,-1.814676361,3.467838593,7.111411743,8.117335264
0.12625675,-1.761087799,3.577859802,7.529791718,8.520579459
0.13626975,-1.816622314,3.666625214,8.179440765,9.145901176
0.14628375,-1.63699585,3.883973236,9.119336243,10.04625786
0.15629675,-1.580712891,3.667822723,9.48592392,10.2924404
0.16631075,-2.170636139,2.901715851,9.770332489,10.42070118
0.17632375,-3.099754028,2.391127625,9.704619141,10.4644923
0.18633675,-3.554658051,2.749781799,8.720864868,9.810727692
0.19635075,-2.72747818,4.374652863,8.118218079,9.616766071
0.20636375,-0.726289673,6.126909027,8.40472229,10.42621061
0.21637775,0.490529938,7.724387054,8.951984253,11.83405244
0.22639075,0.700094147,8.790769501,9.291178894,12.80990888
0.23640475,0.615070953,8.763675842,9.52918396,12.96092873
0.24641775,-0.196690979,7.481741638,9.671088867,12.22886361
0.25643175,-1.670675812,5.929170227,9.58187439,11.39116035
0.26644475,-2.796185303,4.616100769,9.327852631,10.77663553
0.27645875,-3.757935333,3.435505829,9.139244843,10.46186286
0.28647175,-4.563859406,2.823278961,9.080417175,10.54768661
0.29648475,-4.778213654,2.765948181,9.277108154,10.79567185
0.30649875,-4.149371338,2.842738495,9.415270844,10.67453838
0.31651175,-3.415896606,2.7988797,9.184750214,10.19125673
0.32652575,-3.106340332,2.381397858,8.77325592,9.606790591
0.336539083,-3.346291351,2.065105591,7.570806427,8.5310865
0.346553083,-4.54350174,1.84760788,5.965993652,7.723350516
0.356566083,-5.245841217,1.832040253,4.118834839,6.916648176
0.366580083,-6.446943512,2.688708801,3.247945862,7.703336159
0.376593083,-7.348818054,3.213218079,2.606230316,8.433405817
0.386607083,-8.195607147,2.014061737,2.874472504,8.915548966
0.396620083,-10.14874557,0.36973114,3.482059021,10.73584989
0.406633083,-9.800569611,-0.814905396,3.879183197,10.5718162
0.416647083,-7.689509583,-0.917591858,4.58436676,8.999275028
0.426660083,-7.06845108,-0.509241028,6.62971344,9.704402475
0.436674083,-1.720671844,0.298030243,11.15764755,11.29347743
0.446687083,-4.331841888,0.222587128,10.98131424,11.80693278
0.456701083,-3.665128326,0.441282349,14.78101273,15.23503308
0.466714083,-4.155358887,1.561403046,13.8457576,14.53994465
0.476728083,-3.228785706,2.582729187,12.81260605,13.46322476
0.486741083,-2.144141235,3.075055389,10.67056046,11.30991458
0.496755083,-6.174060974,2.517165527,4.897365875,8.272807487
0.506768083,-9.067993011,3.411256256,3.316503296,10.2403301
0.516781083,-10.01028351,4.166735229,4.699327698,11.81740831
0.526795083,-9.313332825,3.776646423,5.076842651,11.25946525
0.536808083,-6.768325195,3.982019348,4.378694458,8.991088321
0.546822083,-6.178701324,3.996389465,2.837349701,7.886572902
0.556835083,-4.913681946,3.426823883,1.888772278,6.281309808
0.566849083,-4.406686249,3.603456573,0.802181854,5.748676256
0.576862083,-5.807024231,3.419339447,3.247945862,7.480813124
0.586876083,-6.255192261,2.433339844,5.585335236,8.731812109
0.596889083,-14.17836594,-0.295036469,8.570278015,16.5699358
0.606903083,-10.85093536,0.229472809,8.104596405,13.5454767
0.616916083,-3.343297577,1.920206909,6.442153473,7.50774098
0.626929083,-1.869312744,3.506009216,6.641239471,7.739024
0.636943083,-3.907025299,1.29645401,2.644251251,4.892617333
0.646956083,-0.505049744,-0.936602325,2.355052643,2.584293348
0.656970083,-5.89249649,-3.439697113,7.224726105,9.937288282
0.666983083,-2.214195557,-4.632865906,10.85752167,12.01049063
0.676997083,1.446741486,-5.841153259,10.63747925,12.22162416
0.687010083,2.457888794,-7.255561981,11.0932814,13.48129405
0.697024083,1.599274292,-8.757837982,9.992919617,13.38341686
0.707037083,0.601149902,-8.647966461,8.61069397,12.21854147
0.717051083,1.694476318,-7.943381653,5.618266754,9.875904181
0.727064083,2.862647095,-7.891888733,2.992726593,8.912523134
0.737077083,3.328179016,-6.110443268,1.51993927,7.122114003
0.747091083,1.994751892,-5.52396286,2.340682526,6.322340981
0.757104083,0.248782654,-6.990762634,5.241350555,8.740961655
0.767118083,-1.639390869,-12.10547653,11.04268661,16.46727337
0.777131083,-5.207520905,-15.25672348,7.328909454,17.70872099
0.787145083,-7.926317139,-14.04259827,7.358248444,17.72469717
0.797158083,-11.47079636,-10.63074326,7.285948792,17.25331623
0.807172083,-14.11310165,-8.422385559,3.961212616,16.90583988
0.817185083,-16.26338013,-6.50098114,-0.914448395,17.53842937
0.827199083,-18.80060394,-3.165766754,-5.050198059,19.72281137
0.837212083,-20.05484573,-0.448766785,-7.651788025,21.46970165
0.847226083,-21.66130508,0.742605743,-10.87249054,24.24818863
0.857239083,-21.13140701,0.290396118,-11.79083084,24.20009058
0.867252083,-18.6910318,-0.291144562,-13.24146423,22.90798572
0.877266083,-17.8523259,1.551822968,-29.88355682,34.84452128
0.887279083,-30.68139771,6.154751129,-56.87677414,64.91684345
0.897293083,-29.0053331,5.481002197,-26.68171509,39.79025827
0.907306083,-18.05186096,-0.028889923,-17.3864946,25.06313455
0.917320083,-9.898765411,-7.624394989,-8.498128052,15.11076226
0.927333083,-7.561675415,-6.997348938,-7.454947357,12.71684188
0.937347083,-6.808591461,-1.831291809,-2.149080963,7.370827386
0.947360083,-7.017706604,-2.808459778,5.419330444,9.300795384
0.957374083,-5.191354523,-4.047732697,10.0767453,12.03640717
0.967387083,-6.299350433,-5.506299591,15.7607254,17.84381171
0.977400083,-7.867190094,-5.825435944,17.31673965,19.89215564
0.987414083,-10.84869003,-5.097499695,11.45762375,16.58178882
0.997427083,-11.88094345,-3.021017761,-0.296383667,12.26259389
1.007441083,-12.26893661,-2.945275269,-6.056106262,13.99563772
1.017454083,-10.6805896,-6.519991608,-4.678670654,13.35946271
1.027468083,-7.607779541,-9.782008209,-4.686454468,13.24873011
1.037481083,-4.75755661,-9.769883423,-4.148024139,11.63146901
1.047495083,-3.66707428,-8.848549347,-3.811823273,10.30894058
1.057508083,-3.877237244,-7.437733154,-4.253704376,9.404618229
1.067522083,-4.539310455,-6.536457367,-3.45990509,8.677647006
1.077535083,-7.135811005,-6.66593811,-0.909658356,9.807242625
1.087549083,-8.693172455,-7.135361938,-0.716559906,11.26934317
1.097562083,-8.569529572,-7.282805328,0.297730865,11.2500993
1.107575083,-7.478598175,-6.902446289,0.866248627,10.21389162
1.117589083,-5.578748932,-7.049889679,1.070723419,9.053719278
1.127602083,-3.46813797,-8.522078247,1.493893433,9.321240058
1.137616083,-1.838476868,-9.860894165,3.358565826,10.57814707
1.147629083,4.7961763,-8.951834564,3.515589294,10.74700038
1.157643083,3.333118744,-8.015381927,4.865482178,9.951328797
1.167656083,-6.297853546,-2.236499176,6.082900543,9.03695562
1.177670083,-7.344028015,0.510887604,6.130351868,9.580029627
1.187683083,-11.05526047,-0.066012726,3.314407654,11.54159607
1.197697083,-14.21818314,0.256566467,-1.010099487,14.25632698
1.207710083,-18.68399643,4.410129089,-2.305505676,19.33536443
1.217724083,-26.5687001,8.703351288,-4.285139008,28.2843873
1.227737083,-33.06264587,10.99358871,-11.38891663,36.6565815
1.237750083,-32.25612305,12.80721725,-14.97411118,37.79823135
1.247764083,-27.09006592,10.27508286,-13.82959122,32.10461949
1.257777083,-24.75207779,5.448070679,-12.02075272,28.05076336
1.267791083,-22.33295837,3.613785095,-10.27613068,24.84792414
1.277804083,-15.88451797,1.463057556,-8.546627197,18.09705184
1.287818083,-11.96776291,-0.23171814,-7.145840149,13.94073433
1.297831083,-9.60762085,-4.539609833,-6.093378754,12.24923265
1.307845083,-7.582033081,-6.883435822,-3.915557556,10.9635991
1.317858083,-5.326972504,-8.075856171,2.755020905,10.0591366
1.327872083,-6.422843628,-10.54227722,4.050726471,12.9923406
1.337885083,-10.10683273,-8.840166779,6.490353241,14.91379569
1.347899083,-11.77286819,-8.554710388,0.573457489,14.56407734
1.357912083,-14.2066571,-0.453407135,1.696272583,14.31474851
1.367925083,-3.160976715,-0.741707611,-3.991749115,5.145480053
1.377939083,3.72440506,-5.65269516,-4.727618866,8.256787254
1.387952083,9.423204346,-6.53496048,2.416425018,11.71928319
1.397966083,8.082741852,-5.441484375,4.348906403,10.67021344
1.407979083,4.238735504,-3.701502686,4.013004913,6.911744298
1.417993083,-0.923280029,-3.771257629,2.913241882,4.854050719
1.428006083,-8.937614136,-4.080364838,-2.153721313,10.05827217
1.438020083,-12.97980835,-2.799628143,-5.340594177,14.31206794
1.448033083,-14.79298782,-1.646875305,-6.383026428,16.19529911
1.458047083,-15.48889069,-2.564766541,-6.926995239,17.16004152
1.468060083,-12.98025742,-3.893703003,-4.824018402,14.38468488
1.478074083,-10.31849258,-4.265978851,-3.088826752,11.58493485
1.488087083,-14.97456024,-0.526754608,-0.26090744,14.98609347
1.498100083,-14.89776993,0.247884521,4.878355408,15.67811682
1.508114083,-12.52849686,-2.438728638,2.322719879,12.97326707
1.518127083,-10.09111542,-4.364923096,6.469696198,12.75696409
1.528141083,-11.29790588,-4.016298065,10.33241364,15.82820581
1.538154083,-10.30292496,-1.652264099,9.806706848,14.31962774
1.548168083,-8.239615631,-1.197809143,8.645421753,12.00288839
1.558181083,-10.01357666,-2.061513062,4.26732605,11.07843063
1.568195083,-4.818779297,3.819457397,0.449066162,6.165269592
1.578208083,-1.631457367,3.069666595,-0.216749268,3.483028336
1.588222083,-2.556982727,1.125210114,1.740730133,3.291564956
1.598235083,-1.822609863,0.334254913,2.524350586,3.131449974
1.608249083,-2.51806366,0.205073547,4.308191071,4.994317777
1.618262083,-1.732347565,0.399818573,4.930896149,5.241623776
1.628275083,-1.339564362,-1.277443542,3.758384399,4.189480633
1.638289083,-1.952689362,-0.919986877,2.402503967,3.229767315
1.648302083,-3.487298126,0.641715546,2.161505127,4.152728197
1.658316083,-2.655926971,-0.614172821,6.36521347,6.924384367
1.668329083,-2.855761414,-4.468956757,8.993897095,10.44112698
1.678343083,-11.14567245,2.799628143,0.156275024,11.49296977
1.688356083,-7.633076935,1.015188904,3.925886078,8.643324216
1.698370083,-9.208850098,-1.670675812,4.620142365,10.43742273
1.708383083,-12.82802399,0.233664093,5.965544586,14.14922332
1.718397083,-14.33913162,-0.153580627,11.26242966,18.233941
1.728410083,-12.48628464,-3.411405945,11.80415314,17.51807712
1.738423083,-9.889185333,-6.884633331,8.381520538,14.67801244
1.748437083,-9.901609497,-10.07614655,0.518970795,14.13647518
1.758450083,-11.93887299,-10.72355026,-7.35510498,17.65301073
1.768464083,-2.770289154,-8.074658661,-2.461032257,8.884328577
1.778477083,-9.860594788,-7.695347443,-7.381450195,14.523619
1.788491083,-11.19641693,-8.315657501,-14.71784409,20.27621381
1.798504083,-9.62393692,-6.326893158,-18.10185699,21.45523166
1.808518083,-12.40949432,-5.288502502,-12.91334656,18.67400138
1.818531083,-13.77166168,-6.184239807,-9.135502625,17.64542138
1.828545083,-9.621541901,-6.799610138,-8.951086121,14.79630729
1.838558083,-12.08077789,-8.669671326,-4.914131012,15.66068578
1.848572083,-8.634793854,-10.52416489,-1.287622375,13.67390518
1.858585083,-8.034691772,-15.19909332,-0.87283493,17.21425428
1.868598083,-7.937543793,-15.12290176,-1.846709747,17.1789725
1.878612083,-7.99173111,-10.4416864,-3.560645599,13.62258339
1.888625083,-7.319329376,-8.910969543,-4.987927551,12.56413077
1.898639083,-6.184688873,-9.127120056,-6.53376297,12.81580101
1.908652083,-3.241359558,-8.765771484,-6.931785278,11.63592749
1.918666083,-4.490511932,-7.454947357,-4.336482239,9.723477553
1.928679083,-5.009782104,-7.844587097,-0.991987152,9.360528936
1.938693083,-8.756041718,-8.971144409,1.48715744,12.62383998
1.948706083,-14.47534836,-8.868457947,0.717907104,16.99119322
1.958720083,-17.33515137,-6.201903076,0.293389893,18.41350462
1.968733083,-15.00719238,-6.557413788,4.027973785,16.86535122
1.978746083,-15.72869202,-8.7124823,9.548493805,20.3586059
1.988760083,-20.71182953,-7.549550629,-4.841382294,22.57021443
1.998773083,-11.94111832,-9.160350952,-11.4835199,18.93075713
2.008787083,-4.151017914,-4.823719025,-4.573589172,7.836895614
2.018800083,-1.230590973,-1.978136444,-6.331084442,6.746110594
2.028814083,-1.910477142,-3.293301544,-7.145540771,8.096574022
2.038827083,-0.625249786,-3.695215759,-5.665418701,6.792829003
2.048841083,-0.040266266,-3.969295807,-3.302432556,5.163621923
2.058854083,-1.867666168,-5.027295685,-1.046773224,5.46421202
2.068868083,-4.035308533,-5.992937622,0.563727722,7.246847952
2.078881083,-5.864654388,-5.106331329,1.255888367,7.876931276
2.088894083,-6.459068298,-2.375859375,0.966091003,6.94964768
2.098908083,-4.033063202,-1.404229889,-0.435594177,4.292691773
2.108921083,-1.62053009,-1.63115799,-1.741179199,2.884180848
2.118935083,-0.10642868,-2.052681427,-2.431094513,3.183559115
2.128948083,-0.640518036,-1.949545898,-1.567689972,2.582371858
2.138962083,-3.024610291,-2.580783234,5.745202789,6.986849404
2.148975083,-6.210435333,-4.72133194,6.279292145,10.01448911
2.158989083,-11.86642365,-7.796686707,8.040529633,16.31718268
2.169002083,-13.5245256,-8.456514587,4.3117836,16.52322334
2.179016083,-9.420959015,-7.309300232,-4.665048981,12.80402361
2.189029083,-4.72836731,-7.801925812,-8.467292175,12.44678836
2.199042083,-1.777852936,-6.935976563,-4.841232605,8.643267037
2.209056083,-1.472188568,-6.262377319,-4.684358826,7.957884548
2.219069083,-1.857038269,-7.104526062,-4.950505371,8.856093107
2.229083083,-4.417463837,-7.836354218,-4.352947998,9.993527428
2.239096083,-8.662486267,-9.249266052,-4.592899017,13.47895813
2.249110083,-11.05975113,-10.83611618,-4.076472931,16.01115675
2.259123083,-11.90189987,-11.94515991,-3.553610229,17.23282367
2.269137083,-12.20861206,-11.07621689,-3.103945313,16.77400565
2.279150083,-7.306755524,-9.489217072,-1.481618958,12.06768875
2.289164083,-3.288810883,-9.867779846,-3.385210419,10.93841879
2.299177083,-4.247567139,-10.18272491,-4.144581299,11.78589273
2.309190083,-3.478765869,-9.272767181,-4.170028381,10.7459369
2.319204083,-3.874243469,-7.210655365,-3.959416351,9.092870344
2.329217083,-5.381159821,-5.910608826,-3.814068604,8.856596243
2.339231583,-6.760092316,-5.835465088,-3.470383301,9.580973915
2.349244583,-6.45891861,-6.448739777,-3.956123199,9.947601976
2.359258583,-6.683451691,-7.908354492,-4.005670166,11.10207146
2.369271583,-8.485703888,-10.71232361,0.147892456,13.66685479
2.379285583,-12.52699997,-12.48688339,-0.300425262,17.6900605
2.389298583,-11.63949554,-8.265362091,-3.645369415,14.73372951
2.399312583,-10.4523143,-3.462150421,-4.945116577,12.07027497
2.409325583,-8.723259888,-6.189179535,-9.97151413,14.62300586
2.419338583,-6.429429932,-8.699758759,-6.534661102,12.63824226
2.429352583,-4.528383179,-9.156758423,0.12633728,10.21608732
2.439365583,-3.234922943,-8.140072632,2.119442596,9.012077775
2.449379583,-2.723436584,-7.162754974,-0.474064178,7.677688617
2.459392583,-2.535726929,-6.987469482,-3.538192291,8.232462907
2.469406583,-3.022215271,-6.392606506,-5.920188904,9.222138567
2.479419583,-3.563938751,-5.841602325,-6.872059479,9.697998692
2.489433583,-4.196074219,-5.203030243,-6.072122955,9.030461768
2.499446583,-0.399070129,-4.287683716,-3.947291565,5.841626427
2.509460583,3.896098022,-4.749174042,-1.453776855,6.312503547
2.519473583,1.550475769,-6.713090057,-1.609453125,7.07530159
2.529486583,-3.267854462,-5.163362732,-2.428100739,6.575322097
2.539500583,-8.084388428,-3.783981171,-4.760700073,10.11632912
2.549513583,-11.61644348,-3.766317902,-7.028184814,14.08979388
2.559527583,-10.85063599,-5.320984955,-7.393425293,14.16728343
2.569540583,-7.632029114,-6.174809418,-6.448440399,11.74557463
2.579554583,-4.166136475,-6.117927704,-4.171974335,8.496534727
2.589567583,-0.160017242,-5.200036469,-0.490679626,5.225586215
2.599581583,-0.260458374,-4.847070465,2.291285248,5.367673495
2.609594583,-4.510121155,-6.760092316,7.019951935,10.73870412
2.619607583,-7.675438843,-11.46900009,-0.816402283,13.82450134
2.629621583,-6.346652069,-13.00854858,-3.476819916,14.88591971
2.639634583,-5.38594986,-12.9181366,-1.877695313,14.12134727
2.649648583,-4.405039673,-13.73483826,-1.53745285,14.50565123
2.659661583,-3.445085907,-15.65025513,1.010099487,16.05675569
2.669675583,-4.368665314,-18.37279358,2.57419693,19.05967655
2.679688583,-5.460195465,-19.11824341,0.607736206,19.89196594
2.689702583,-4.747677155,-12.9206813,-3.049009552,14.09896815
2.699715583,-4.604574738,-11.08594666,-2.829565887,12.33315713
2.709729583,-3.614533539,-12.12837891,-2.936144257,12.99166543
2.719742583,-2.976560211,-11.9493512,-2.540367279,12.57379698
2.729755583,-2.145338745,-10.45755341,-2.454595642,10.95390074
2.739769583,-1.597627716,-8.66098938,-1.775457916,8.984286403
2.749782583,-1.623823242,-6.994205475,-2.167792053,7.500335628
2.759796583,-2.039209442,-6.142177277,-2.925666046,7.102410764
2.769809583,-2.491868134,-5.895340576,-4.074676666,7.587320821
2.779823583,-3.20723053,-7.307354279,-3.497177582,8.712864355
2.789836583,-5.620661774,-12.93115952,1.39704483,14.16892584
2.799850583,-6.33138382,-17.23201584,3.25752594,18.64511373
2.809863583,-3.727548523,-13.14850754,-1.915865936,13.80030473
2.819877583,-2.547702026,-14.15381699,1.032103729,14.41827171
2.829890583,-1.883533173,-12.42356506,1.340163116,12.63679957
2.839903583,-2.330653381,-9.804012451,2.368824005,10.35190478
2.849917583,-3.574866028,-6.896608429,3.940555573,8.710387658
2.859930583,-4.746180267,-5.905070343,5.22323822,9.202081308
2.869944583,-5.935606842,-5.173242188,4.506528625,9.072081545
2.879957583,-6.845564575,-4.780159607,2.863545227,8.826753168
2.889971583,-7.4265065,-4.995411987,0.756975861,8.9822131
2.899984583,-7.724836121,-5.993985443,-1.149309998,9.844890454
2.909998583,-7.883057098,-7.411238251,-2.060315552,11.01426084
2.920011583,-7.136559448,-8.245303802,-2.296524353,11.14403606
2.930025583,-6.111042023,-8.510103149,-2.555934906,10.78422429
2.940038583,-5.424719238,-7.699987793,-2.24069046,9.681843036
2.950051583,-5.294340363,-7.495962067,-2.02888092,9.39871507
2.960065583,-5.359155579,-7.285799103,-2.701282654,9.439297911
2.970078583,-6.056106262,-7.038513336,-2.960693207,9.745911825
2.980092583,-6.913972321,-6.636449432,-2.961142273,10.03064494
2.990105583,-7.361242218,-6.193670197,-1.848056946,9.796160063
3.000119583,-7.515271912,-6.248456268,-0.501906281,9.786441006
3.010132583,-7.100484467,-6.959926758,0.81550415,9.976096789
3.020146583,-6.56534729,-7.270530853,1.255888367,9.876318115
3.030159583,-6.205645294,-7.698640594,1.513502655,10.00348893
3.040172583,-5.936055908,-7.645052032,-0.247435455,9.682190074
3.050186583,-4.221970367,-5.792504425,-2.957849121,7.754160994
3.060199583,-1.437011719,-4.080215149,-5.069358215,6.664199206
3.070213583,-2.123184814,-5.715564423,-4.670288086,7.680311272
3.080226583,-3.837270355,-7.026238861,-2.841091919,8.494967899
3.090240583,-5.054239655,-7.815248108,-2.340532837,9.596954487
3.100253583,-6.438261566,-8.45741272,-1.029858398,10.67893488
3.110267583,-7.785160675,-9.538913727,-1.889969788,12.45678882
3.120280583,-7.318131866,-9.812694397,-1.714684296,12.36058929
3.130294583,-6.255940704,-8.944350128,-1.487456818,11.01593033
3.140307583,-5.449268188,-7.492668915,-1.961221619,9.470005359
3.150320583,-4.377946014,-5.674699402,-1.835483093,7.398487872
3.160334583,-3.807631989,-4.554728394,-1.489253082,6.120578963
3.170347583,-3.980971527,-4.331991577,-1.472637634,6.064894634
3.180361583,-4.399201813,-4.454586639,-1.300345917,6.394311395
3.190374583,-5.290897522,-5.094206543,-1.149459686,7.434096748
3.200388583,-6.558611298,-6.591393127,-1.822310486,9.475371287
3.210401583,-7.571105804,-8.125403137,-2.527643738,11.39003082
3.220415583,-8.148305511,-9.087452545,-2.465971985,12.45221644
3.230428583,-7.90281601,-9.232051849,-1.598226471,12.25722685
3.240442583,-6.133046265,-7.153623962,0.571960602,9.440112881
3.250455583,-5.977669373,-6.246510315,0.297880554,8.651020464
3.260468583,-6.477929077,-4.008214874,-2.156715088,7.917118894
3.270482583,-7.072193298,-2.473456421,-3.835623779,8.417001514
3.280495583,-6.581813049,-2.014211426,-3.735931091,7.831634044
3.290509583,-3.65420105,-1.65570694,-0.836310883,4.09804425
3.300522583,-3.00949173,-3.958967285,-4.580774231,6.76120958
3.310536583,-1.717827759,-6.898105316,-3.72560257,8.025889587
3.320549583,-0.992735596,-8.548872528,-1.28358078,8.701512804
3.330563583,-1.569186859,-8.947343903,-1.667532349,9.235690253
3.340576583,-4.008963318,-9.481882324,-3.45646225,10.85932827
3.350589583,-6.627767487,-10.96005844,-2.049388275,12.97112852
3.360603583,-6.955136719,-11.43846359,2.843636627,13.68570953
3.370616583,-6.864275665,-10.95751373,-0.32991394,12.93422711
3.380630583,-6.623426514,-10.10338989,0.463286591,12.08978497
3.390643583,-7.370672607,-10.13617172,0.553848267,12.5449408
3.400657583,-7.752079468,-11.40493332,0.082478485,13.7903605
3.410670583,-6.201154633,-11.29296616,0.584534454,12.8967858
3.420684583,-5.584437103,-11.02337677,1.238973541,12.41917182
3.430697583,-5.305866394,-11.16797607,-0.806971893,12.39060577
3.440711583,-4.531526642,-11.25479553,-3.578608246,12.64956889
3.450724583,-3.49268692,-10.12015503,-5.522465973,12.04632849
3.460737583,-3.065625,-10.23391846,-5.523064728,12.02644534
3.470751583,-3.381318512,-12.14948502,-4.252506866,13.30891114
3.480764583,-3.117716675,-13.34265381,-3.969146118,14.26536676
3.490778583,-2.068099365,-11.00331848,-0.074395294,11.19623094
3.500791583,-2.756068726,-8.408763885,1.005908203,8.905901202
3.510805583,-4.207450562,-6.936126251,-0.122295685,8.113411356
3.520818583,-5.892047424,-6.591542816,-1.828298035,9.028141185
3.530832583,-8.386310577,-10.57386154,1.183588715,13.54760626
3.540845583,-10.23361908,-11.82331329,-2.503693542,15.83622992
3.550859583,-9.101972351,-8.596323853,-7.213349762,14.44905185
3.560872583,-6.440057831,-7.286846924,-8.97099472,13.2306927
3.570885583,-5.075944519,-7.957602081,-7.080426178,11.79919821
3.580899583,-5.449866943,-9.034013672,-2.870131531,10.93398865
3.590912583,-5.924679565,-9.147926788,-1.238674164,10.96907955
3.600926583,-5.395829315,-6.567891998,-0.865649872,8.544093223
3.610939583,-4.85470459,-4.683610382,-1.238225098,6.858393708
3.620953583,-4.714895325,-4.299060059,1.288520508,6.509411679
3.630966583,-4.815785522,-5.765710144,2.875370636,8.043815013
3.640980583,-4.487368469,-6.090684357,1.972298584,7.818111883
3.650993583,-3.279081116,-5.220094757,0.847836914,6.222587056
3.661006583,-2.447111206,-4.424499207,-1.061891785,5.166445649
3.671020583,-2.871778107,-4.129612427,-0.42706192,5.048087774
3.681033583,-3.37338501,-4.945865021,0.244741058,5.991761462
3.691047583,-4.254752197,-6.050717468,-0.299078064,7.402941701
3.701060583,-4.789889374,-7.009473724,-0.983005829,8.546464916
3.711074583,-5.497318268,-8.521329803,-1.481469269,10.24833259
3.721087583,-6.275998993,-10.30172745,-1.701511688,12.1823189
3.731101583,-7.398215332,-11.96491882,-0.516575775,14.07692165
3.741114583,-7.927514648,-13.08084824,0.312849426,15.29875661
3.751128583,-8.224646759,-13.7980069,0.166304169,16.06416713
3.761141583,-7.866890717,-13.78348709,0.41074585,15.87580543
3.771154583,-6.451583862,-12.62803986,0.541124725,14.19095278
3.781168583,-4.87221817,-11.05271576,0.108524323,12.07943761
3.791181583,-3.867657166,-9.924362183,-0.426612854,10.65991253
3.801195583,-3.427722015,-9.420060883,-0.907263336,10.0652845
3.811208583,-3.107388153,-9.325307922,-1.235530701,9.906753509
3.821222583,-2.985691223,-9.181906128,-1.45796814,9.76460052
3.831235583,-3.173700256,-9.047485657,-1.50826355,9.705886305
3.841249583,-3.44703186,-9.089548187,-1.247954865,9.800984963
3.851262583,-3.624263306,-9.032965851,-0.791853333,9.765080044
3.861276583,-3.789220276,-9.044940948,-0.404009857,9.814905554
3.871289583,-3.880979462,-9.047186279,-0.177081757,9.846062111
3.881303583,-3.884122925,-9.056017914,-0.106877747,9.854404812
3.891316583,-3.805835724,-9.131910095,-0.126187592,9.8940432
3.901329583,-3.688479767,-9.259594574,-0.281564484,9.971171106
3.911343583,-3.564687195,-9.436826019,-0.563578033,10.10338064
3.921356583,-3.414699097,-9.577683105,-0.934207306,10.21101987
3.931370583,-3.239114227,-9.59355011,-1.489253082,10.23454637
3.941383583,-3.059038696,-9.545949097,-2.080074463,10.2376546
3.951397583,-2.908751221,-9.464368744,-2.540666656,10.22203974
3.961410583,-2.854563904,-9.399852905,-2.839894409,10.22598504
3.971424583,-2.9077034,-9.355245667,-2.847079468,10.20202049
3.981437583,-3.023861847,-9.321715393,-2.720891876,10.17061311
3.991451583,-3.210972748,-9.233548737,-2.569257202,10.10791031
4.001464583,-3.505859528,-9.09044632,-2.394570465,10.03300718
4.011477583,-3.729943542,-8.942553864,-2.272574158,9.952202858
4.021491583,-3.924389191,-8.770262146,-2.197131042,9.856252505
4.031504583,-4.037553864,-8.580007782,-2.178869019,9.729637452
4.041518583,-4.092789001,-8.379724274,-2.21853653,9.586063063
4.051531583,-4.164789276,-8.215815125,-2.34607132,9.505216384
4.061545583,-4.229754181,-8.06418045,-2.502945099,9.443863666
4.071558583,-4.364324341,-7.938142548,-2.592458954,9.422434796
4.081572583,-4.53990921,-7.774532776,-2.592159576,9.368747344
4.091585583,-4.710853729,-7.619006195,-2.524949341,9.306812958
4.101598583,-4.931794281,-7.434290314,-2.509681091,9.267673197
4.111612583,-5.203479309,-7.225773926,-2.619103546,9.281579021
4.121625583,-5.423521729,-7.013365631,-2.813549194,9.30150227
4.131639583,-5.549559631,-6.818021851,-2.959046631,9.275720512
4.141652583,-5.440286865,-6.684499512,-3.097808075,9.158366108
4.151666583,-5.162614288,-6.636299744,-3.183729401,8.990505741
4.161679583,-4.919669495,-6.700665894,-3.248245239,8.924862379
4.171693583,-4.764891357,-6.922504578,-3.298690338,9.028101529
4.181706583,-4.664450226,-7.180118866,-3.326981506,9.185859175
4.191720583,-4.560117188,-7.35869751,-3.395389252,9.299127162
4.201733583,-4.487368469,-7.435338135,-3.543581085,9.37964263
4.211746583,-4.36671936,-7.485184479,-3.574416962,9.374042952
4.221760583,-4.214785309,-7.507338409,-3.595523071,9.330183886
4.231773583,-4.110601959,-7.492818604,-3.622916107,9.282505061
4.241787583,-4.099524994,-7.437134399,-3.73144043,9.275813761
4.251800583,-4.147425385,-7.410789185,-3.937561798,9.360840057
4.261814583,-4.215084686,-7.406448212,-4.014052734,9.419927461
4.271827583,-4.278702393,-7.399263153,-3.99698822,9.435693096
4.281841583,-4.35384613,-7.307503967,-3.920197906,9.366084667
4.291854583,-4.45683197,-7.238946533,-3.823648682,9.321265331
4.301868583,-4.579576721,-7.20661377,-3.789669342,9.341809177
4.311881583,-4.708159332,-7.220235443,-3.78877121,9.41559087
4.321894583,-4.808001709,-7.238497467,-3.81332016,9.489685804
4.331908583,-4.893923035,-7.158713379,-3.845952301,9.486253687
4.341920875,-4.91667572,-7.171736298,-3.819756775,9.497265053
4.351934875,-4.95529541,-7.261998596,-3.744762726,9.555879033
4.361947875,-4.979994049,-7.293283539,-3.668421478,9.562930599
4.371961875,-4.892875214,-7.325616302,-3.698359222,9.554200281
4.381974875,-4.692891083,-7.303162994,-3.73144043,9.44897159
4.391988875,-4.498894501,-7.301815796,-3.700754242,9.340885804
4.402001875,-4.253404999,-7.379653931,-3.637435913,9.261840327
4.412015875,-3.972888336,-7.578141174,-3.672612762,9.311291527
4.422028875,-3.735781403,-8.00101181,-3.668571167,9.561938458
4.432041875,-3.50436264,-8.514144745,-3.388054504,9.810715141
4.442055875,-3.362008667,-9.246721344,-2.921025696,10.26339851
4.452068875,-3.219205627,-10.11192215,-2.530338135,10.90948512
4.462082875,-2.972668304,-11.10615463,-2.677631836,11.80479309
4.472095875,-2.848875732,-12.26085342,-3.272644501,13.00595332
4.482109875,-3.44942688,-13.54877518,-4.039050751,14.55272433
4.492122875,-4.615651703,-14.7588588,-4.922363892,16.22830305
4.502136875,-5.927224274,-15.81087112,-5.532794495,17.76872106
4.512149875,-6.729555817,-15.87763229,-5.738466797,18.17460123
4.522163875,-6.48107254,-13.58455078,-5.403164063,15.99182613
4.532176875,-5.450166321,-9.29866333,-3.869603119,11.45178069
4.542190875,-4.229005737,-6.052364044,-1.704056396,7.577559518
4.552203875,-3.203039246,-4.28723465,0.578397217,5.38278596
4.562216875,-2.436034241,-3.487896881,2.542462921,4.956188574
4.572230875,-2.185455322,-3.43655365,3.365750885,5.283407515
4.582243875,-2.806214447,-4.061504059,2.881807251,5.716245951
4.592257875,-4.219874725,-5.329517212,1.594035187,6.982266436
4.602270875,-6.094875641,-7.135511627,0.541873169,9.399822434
4.612284875,-7.820636902,-8.563242645,0.487236786,11.60727728
4.622297875,-8.680149536,-9.079668732,0.763262787,12.58443286
4.632311875,-8.703201599,-8.98506546,0.809366913,12.5352381
4.642324875,-8.138276367,-8.479716339,0.644260254,11.77081997
4.652338875,-7.038663025,-7.808811493,0.276475067,10.51649906
4.662351875,-5.657784576,-7.371271362,-0.264649658,9.296031801
4.672364875,-4.435576172,-7.278015289,-0.799637146,8.560564356
4.682378875,-3.657943268,-7.644902344,-1.055904236,8.540492641
4.692391875,-3.302881622,-8.152047729,-0.996328125,8.851981638
4.702405875,-3.313958588,-8.296647034,-1.040935364,8.994454956
4.712418875,-3.896547089,-7.834258575,-0.410895538,8.75942474
4.722432875,-4.457879791,-7.884254608,0.630937958,9.079220543
4.732445875,-4.91787323,-7.895181885,0.967138824,9.351723456
4.742459875,-5.899831238,-7.478149109,1.444496155,9.634173129
4.752472875,-6.63091095,-7.67573822,1.668430481,10.27957185
4.762486875,-7.348818054,-7.950566711,2.043550415,11.01783718
4.772499875,-8.155041504,-7.966733093,2.442620544,11.65932816
4.782512875,-8.655899963,-7.843688965,2.421963501,11.92954182
4.792526875,-8.72415802,-7.355554047,1.553170166,11.51639901
4.802539875,-8.461903381,-6.695426788,0.576151886,10.80576234
4.812553875,-7.470664673,-7.029981079,-0.343086548,10.26397452
4.822566875,-7.112609253,-8.249345398,-0.546812897,10.90595774
4.832580875,-7.237749023,-9.561067657,0.096399536,11.99201061
4.842593875,-6.805447998,-10.23137375,0.056282959,12.28813652
4.852607875,-6.405479736,-10.53973251,-1.20873642,12.39262587
4.862620875,-6.290967865,-10.31265472,-3.162024536,12.48701419
4.872634875,-6.46819931,-9.546398163,-3.015928345,11.91919225
4.882647875,-4.994214478,-8.188422089,-2.115101624,9.821715198
4.892661875,-3.814667358,-7.06141571,-0.808618469,8.066544658
4.902674875,-2.739303589,-6.333928528,0.353564758,6.909952445
4.912687875,-1.582060089,-6.59693161,1.253044281,6.898734722
4.922701875,-0.288450165,-6.592890015,1.195713501,6.706648419
4.932714875,-0.053438873,-6.339317322,1.2660672,6.464729381
4.942728875,-0.454904022,-5.739364929,1.19346817,5.879763068
4.952741875,-1.547631683,-5.395679626,0.784368896,5.667782373
4.962755875,-2.926863556,-5.873186646,0.436641998,6.57658786
4.972768875,-3.629801788,-6.047274628,0.383652191,7.063439704
4.982782875,-4.090393982,-5.92767334,0.596060486,7.226612087
4.992795875,-4.420307922,-5.98964447,0.757574615,7.482571905
5.002809875,-4.751269684,-6.456224213,0.715512085,8.047940869
5.012822875,-5.382806396,-7.33055603,0.600551147,9.114401686
5.022835875,-5.841752014,-8.613088989,0.21300705,10.40945438
5.032849875,-6.331533508,-10.13931519,-0.26330246,11.95672853
5.042862875,-6.874903564,-11.22515717,-0.325123901,13.16716211
5.052876875,-6.668033752,-12.16714828,-0.059276733,13.87464181
5.062889875,-5.699398041,-12.90870621,-0.280217285,14.11369391
5.072903875,-4.628524933,-12.90197021,-0.190404053,13.70840371
5.082916875,-4.461023254,-11.89037384,0.070503387,12.69986966
5.092930875,-5.640121307,-8.9394104,0.346529388,10.57563754
5.102943875,-4.281995544,-8.081694031,1.347348175,9.244707208
5.112957875,-3.273991699,-7.97885788,2.261048126,8.91591461
5.122970875,-5.201533356,-7.837701416,2.743644562,9.798627364
5.132984875,-7.429500275,-6.806795197,2.622396698,10.41186341
5.142997875,-8.954528961,-4.875062256,1.823208618,10.35731194
5.153010875,-9.699380035,-3.435206451,-0.001347198,10.28973363
5.163024875,-10.50231033,-3.117716675,-2.088756409,11.15264914
5.173037875,-11.20659576,-3.967948608,-2.56012619,12.16086555
5.183051875,-11.89396637,-5.097499695,-1.895657959,13.07839662
5.193064875,-11.67033142,-6.342011719,-1.606758728,13.37906655
5.203078875,-10.6115831,-7.653135223,-0.984802094,13.12044244
5.213091875,-8.694669342,-8.570128326,-0.212258606,12.21021819
5.223105875,-6.003266144,-9.179511108,-0.023950195,10.96828164
5.233118875,-2.530188446,-10.65499283,0.102686462,10.95177019
5.243132875,0.710871735,-11.25210114,0.800235901,11.30289769
5.253145875,2.528990936,-10.89269852,2.249222717,11.40638764
5.263158875,2.861150208,-10.58912979,2.230811005,11.19340734
5.273172875,0.163011017,-10.81620758,1.749861145,10.95805334
5.283185875,-0.782722321,-10.56637711,0.08187973,10.59564456
5.293199875,0.042212219,-10.19874161,-0.458047485,10.20910965
5.303212875,-1.801054688,-11.30494125,0.079933777,11.44778949
5.313226875,-6.03769455,-10.73777069,0.671802979,12.33713071
5.323239875,-7.967331848,-9.781858521,1.430575104,12.69683732
5.333253875,-9.260492706,-8.762178955,0.568368073,12.76148688
5.343266625,-10.83626587,-7.498656464,-0.474363556,13.18633867
5.353280625,-11.82915115,-6.631659393,-1.008003845,13.59866887
5.363293625,-11.63515457,-6.402935028,-0.014669495,13.28061046
5.373307625,-10.73118439,-7.991282043,1.119372253,13.4265372
5.383320625,-10.11132339,-10.52641022,1.290765839,14.65299455
5.393334625,-10.01013382,-10.7430098,1.206790466,14.73334252
5.403347625,-7.687114563,-9.959389343,0.344284058,12.58569418
5.413360625,-5.470374298,-10.2426004,-1.694027252,11.73480235
5.423374625,-2.76609787,-10.14919464,-3.101550293,10.96709002
5.433387625,-1.949845276,-9.715845795,-4.342320099,10.81920977
5.443401625,-1.886377258,-10.22344025,-3.885021057,11.0982223
5.453414625,-1.911674652,-9.66719696,-2.984793091,10.29651333
5.463428625,-2.500699768,-8.32164505,-2.258952484,8.978092336
5.473441625,-3.008144531,-8.383915558,-1.284628601,8.999402438
5.483455625,-2.423610077,-8.5439328,-1.797013092,9.061011508
5.493468625,-4.201013947,-7.468419342,0.847687225,8.610713053
5.503482625,-4.553530884,-6.044280853,-0.487386475,7.583239421
5.513495625,-3.615731049,-6.742578735,-0.538130951,7.669776003
5.523509625,-3.497776337,-7.513325958,0.744102631,8.320949163
5.533522625,-3.807631989,-8.192463684,0.003143463,9.034076182
5.543535625,-3.757486267,-8.426127777,-0.402662659,9.234742529
5.553549625,-3.405568085,-8.749754791,0.237406311,9.392149096
5.563562625,-3.596121826,-9.027427368,0.054337006,9.717483707
5.573576625,-4.485871582,-10.05998016,0.220192108,11.01701998
5.583589625,-6.477180634,-11.62587387,-0.475860443,13.31695368
5.593603625,-6.731052704,-12.21175552,0.481398926,13.95226822
5.603616625,-5.061424713,-13.17530182,0.998423767,14.14932677
5.613630625,-3.780987396,-13.73019791,0.485290833,14.24955113
5.623643625,-3.877835999,-13.19326447,0.851279755,13.77768183
5.633657625,-4.442312164,-11.61285095,2.223625946,12.630794
5.643670625,-5.203030243,-10.43839325,3.138373718,12.07811935
5.653684625,-6.260581055,-9.638756104,2.433190155,11.74823002
5.663697625,-8.393944702,-9.259744263,0.439336395,12.50576619
5.673710625,-10.57565781,-8.355774078,-1.448238373,13.5558435
5.683724625,-8.301586761,-7.562723236,-2.91114624,11.60111624
5.693737625,-6.369404755,-8.329428864,-2.113305359,10.69648361
5.703751625,-3.682342529,-10.49452652,-0.947230225,11.1620777
5.713764625,-2.287393341,-12.0873642,-0.248183899,12.30439502
5.723778625,-2.61625946,-12.16086136,0.54995636,12.45125755
5.733791625,-3.194956055,-11.2326416,0.475261688,11.68785075
5.743805625,-4.37375473,-10.2665506,0.034428406,11.15943444
5.753818625,-4.974904633,-8.988059235,-0.570014648,10.28881925
5.763832625,-5.213508453,-8.076903992,-1.06009552,9.671651927
5.773845625,-5.064268799,-8.001311188,-2.719394989,9.852050969
5.783859625,-3.723955994,-7.559130707,-2.951861572,8.928706067
5.793872625,-0.608035583,-6.0622435,-1.620081024,6.304376737
5.803885625,4.915029144,-3.762725372,-2.653232574,6.734631156
5.813899625,2.292033691,-2.680026855,-3.453618164,4.935933631
5.823912625,-1.125958557,-2.999163208,-3.549868011,4.781665559
5.833926625,-2.647843781,-3.938010864,-2.274071045,5.262167364
5.843939625,-3.919000397,-5.111420746,-0.060923309,6.441187608
5.853953625,-4.654121704,-6.697073364,-0.325123901,8.161944991
5.863966625,-5.342240753,-8.334667969,-1.61349472,10.03043327
5.873980625,-5.622757416,-9.717492371,-2.677631836,11.54187035
5.883993625,-5.31335083,-10.63538361,-3.152294769,12.29959527
5.894007625,-4.940476227,-10.9048233,-2.872676239,12.31161019
5.904020625,-4.538412323,-10.31909134,-2.23021225,11.49150465
5.914034625,-4.396657104,-9.115294647,-1.660796356,10.25560504
5.924047625,-4.217928772,-7.756719818,-1.601968689,8.973512642
5.934060625,-3.558849335,-6.771768036,-1.97514267,7.900850555
5.944074625,-2.337988129,-6.467450867,-3.322640533,7.63767303
5.954087625,-1.741179199,-6.313121796,-4.901407471,8.179914853
5.964101625,-1.651815033,-5.554798737,-5.777086487,8.182848537
5.974114625,-1.904190216,-4.612208862,-6.275400238,8.017422224
5.984128625,-2.286944275,-3.870052185,-6.714736633,8.080538725
5.994141625,-3.183130646,-3.90343277,-7.290888519,8.861498942
6.004155625,-4.169579315,-4.375401306,-6.254443817,8.697562631
6.014168625,-5.297483826,-5.916746063,-5.492827606,9.656209089
6.024182625,-6.421795807,-7.169940033,-5.170398102,10.92613921
6.034195625,-6.608008575,-4.110302582,-2.689756622,8.233781351
6.044209625,-7.1106633,-2.587818604,-0.327518921,7.574008604
6.054222625,-7.425758057,-3.391048279,-3.541485443,8.898494833
6.064236625,-7.200177155,-3.087928619,-6.352789307,10.08641592
6.074249625,-6.5665448,-3.572620697,-6.464307404,9.882833574
6.084262625,-6.026916962,-4.658762054,-4.780758362,8.99352225
6.094276625,-5.083129578,-5.270539856,-2.393672333,7.703665615
6.104289625,-4.624483337,-6.55950943,-1.120869141,8.103663229
6.114303625,-4.59020462,-7.951614532,-0.802780609,9.216431459
6.124316625,-4.988825684,-9.479337616,-0.492326202,10.72327415
6.134330625,-5.920039215,-11.59159515,-0.018860779,13.01584796
6.144343625,-7.167545013,-14.68266724,0.08187973,16.33894498
6.154357625,-8.97099472,-18.45931366,-0.257763977,20.52538549
6.164370625,-10.75708054,-21.64843185,-0.877175903,24.18964285
6.174384625,-11.98827026,-23.06373871,-1.021625519,26.01342703
6.184397625,-10.64286804,-19.15716248,-0.498912506,21.92068493
6.194411625,-6.145470428,-12.1378093,0.035027161,13.60494205
6.204424625,-2.40100708,-7.894134064,0.480500793,8.265172026
6.214438625,0.240549774,-5.761219482,0.834963684,5.826377817
6.224451625,2.360890503,-4.647086334,0.348924408,5.224075383
6.234464625,3.882176971,-4.567002869,-0.825233917,6.05060528
6.244478625,4.354594574,-5.26185791,-1.379381561,6.967950636
6.254491625,3.509901123,-6.427783356,-0.786913605,7.36580191
6.264505625,1.477128296,-7.786507874,0.4644841,7.93897716
6.274518625,-1.010249176,-9.03072052,1.640738068,9.233988191
6.284532625,-3.34524353,-10.27732819,2.437980194,11.07961535
6.294545625,-5.413193207,-11.09552673,3.040926361,12.71458247
6.304559625,-6.87071228,-11.43352386,3.708388367,13.84500991
6.314572625,-7.895032196,-11.46944916,4.646188202,14.67878953
6.324586625,-8.508157196,-11.11139374,5.205874329,14.93160866
6.334599625,-8.550818481,-9.974058838,5.039869537,14.07119865
6.34461425,-8.232131195,-8.185428314,3.147654419,12.02817314
6.35462725,-7.453151093,-6.15460144,0.291144562,9.670229845
6.36464125,-5.623954926,-4.756508789,0.33230896,7.373172595
6.37465425,-4.326453094,-4.249962158,2.289189606,6.482342461
6.38466825,-4.637206879,-4.199966125,3.508703613,7.173172529
6.39468125,-6.264173584,-4.586013336,3.487597504,8.510859261
6.40469425,-8.340056763,-5.508544922,2.715652771,10.35738306
6.41470825,-9.408534851,-6.594985657,1.51993927,11.58984811
6.42472125,-9.047335968,-7.291487274,0.726439362,11.64249926
6.43473525,-8.01508255,-7.36333786,1.199156342,10.94980679
6.44474825,-7.334298248,-7.17263443,1.608405304,10.38390982
6.45476225,-6.997947693,-7.276219025,1.586999817,10.21925651
6.46477525,-6.652017059,-7.655979309,1.285077667,10.22324678
6.47478925,-6.220464478,-7.958799591,1.034049683,10.15410892
6.48480225,-5.928421783,-8.096363525,1.079105988,10.09265857
6.49481625,-5.778134308,-7.905809784,1.283431091,9.876024493
6.50482925,-5.858367462,-7.520960083,1.626966705,9.671211431
6.51484325,-6.182443542,-7.283853149,2.002535706,9.761520072
6.52485625,-6.573430481,-7.301815796,2.117945709,10.05048239
6.53487025,-6.85783905,-7.532935181,1.726210327,10.33222488
6.54488325,-7.035968628,-7.616461487,1.119372253,10.42920584
6.55489625,-7.073690186,-7.551945648,0.582887878,10.36381851
6.56491025,-6.942712555,-7.45105545,0.278121643,10.18807325
6.57492325,-6.688840485,-7.595056,0.118703156,10.12124267
6.58493725,-6.137387238,-7.759713593,0.181871796,9.895137922
6.59495025,-5.570066986,-7.94368103,0.392932892,9.709897569
6.60496425,-5.264851685,-8.103548584,0.640368347,9.684845612
6.61497725,-5.137765961,-8.261170807,0.762664032,9.758342
6.62499125,-5.014871521,-8.355923767,0.833616486,9.780864728
6.63500425,-4.835544434,-8.266559601,0.902772675,9.619433253
6.64501825,-5.031786346,-7.899822235,1.062041473,9.426239827
6.65503125,-5.478906555,-7.420219574,1.272653503,9.311161179
6.66504525,-5.920787659,-7.044500885,1.647024994,9.348444285
6.67505825,-6.311624908,-6.818171539,2.07812851,9.520645473
6.68507225,-6.523135071,-6.655609589,2.36238739,9.614016035
6.69508525,-6.736890564,-6.553521881,2.302212524,9.676493478
6.70509925,-6.983577576,-6.542893982,1.763183441,9.730808459
6.71511225,-7.109016724,-6.558012543,0.815653839,9.70623194
6.72512525,-7.042405243,-6.500681763,-0.339494019,9.590077746
6.73513925,-7.003186798,-6.453380127,-1.302441559,9.611820556
6.74515225,-7.1995784,-6.509363708,-1.736838226,9.860139555
6.75516625,-7.476502533,-6.490203552,-1.486708374,10.01155003
6.76517925,-7.460336151,-6.436914368,-0.725241852,9.88010414
6.77519325,-7.113806763,-6.468498688,0.166603546,9.616417143
6.78520625,-6.637197876,-6.423592072,0.815653839,9.272552072
6.79522025,-6.456673279,-6.268813934,1.125359802,9.069349076
6.80523325,-6.738986206,-6.197711792,1.247805176,9.240269709
6.81524725,-7.350015564,-6.234684906,1.084943848,9.699027158
6.82526025,-7.879165192,-6.341113586,0.806971893,10.14604205
6.83527425,-8.355923767,-6.681356049,0.76401123,10.72593557
6.84528725,-8.626710663,-7.086264038,1.005758514,11.20922946
6.85530125,-8.474028168,-7.500452728,1.306034088,11.3917369
6.86531425,-8.190368042,-7.960895233,1.50003067,11.51989903
6.87532825,-8.005053406,-8.54977066,1.566941528,11.81671545
6.88534125,-7.929759979,-9.158105621,1.483115845,12.20457392
6.89535425,-7.776927795,-9.621242523,1.077309723,12.41811217
6.90536825,-7.518115997,-9.845476227,0.404458923,12.39431552
6.91538125,-7.353757782,-9.943672028,-0.369132385,12.37297966
6.92539525,-7.450456696,-10.08123596,-0.935404816,12.57042583
6.93540825,-7.599846039,-10.17000137,-1.128802643,12.74601048
6.94542225,-7.463629303,-9.991722107,-1.010099487,12.51241679
6.95543525,-6.95618454,-9.445058899,-0.683778076,11.75011461
6.96544925,-6.036197662,-8.977281647,-0.281265106,10.82157004
6.97546225,-4.926555176,-8.720415802,0.080233154,10.01613873
6.98547625,-3.961062927,-8.871900787,0.137114868,9.716966789
6.99548925,-3.258424072,-9.222022705,0.034727783,9.78080959
7.00550325,-2.370919647,-9.537117462,-0.053139496,9.827547673
7.01551625,-1.378034363,-9.758806458,0.200582886,9.85766279
7.02553025,-1.032702484,-9.84158432,0.599203949,9.913743073
7.03554325,-1.190324707,-10.04156845,1.024918671,10.16368182
7.04555725,-1.747615814,-10.40022263,1.39704483,10.63816366
7.05557025,-2.465073853,-10.42776535,1.535506897,10.82463213
7.06558425,-2.907104645,-10.30846344,1.448388062,10.8080296
7.07559725,-3.381318512,-10.13362701,1.279688873,10.75924323
7.08561025,-4.098028107,-9.452243958,1.261726227,10.37934021
7.09562425,-5.241350555,-8.684640198,1.56903717,10.26433674
7.10563725,-5.730533295,-8.373437347,1.67905838,10.28458565
7.11565125,-5.70763092,-8.369844818,1.703757019,10.27298111
7.12566425,-5.60584259,-8.798253937,1.693278809,10.56891369
7.13567825,-5.488037567,-9.364376678,1.797013092,11.00178908
7.14569125,-5.031636658,-10.72714279,1.842069397,11.99092071
7.15570525,-5.253175964,-12.18780533,1.760339355,13.38795171
7.16571825,-5.419330444,-12.461586,1.420396271,13.66300822
7.17573225,-6.223607941,-12.18211716,1.018182678,13.71765177
7.18574525,-7.739206238,-11.04508163,1.146615601,13.53528237
7.19575925,-7.751181335,-10.05668701,1.376836853,12.77158743
7.20577225,-4.651726685,-6.84736084,1.517693939,8.415955472
7.21578625,-2.006277924,-8.335865479,1.951342163,8.793153053
7.22579925,0.539927216,-10.15383499,2.125430145,10.38794204
7.23581325,2.439477081,-9.128018188,1.621128845,9.586439548
7.24582625,4.796924744,-8.861572266,-4.82431778,11.17192875
7.25584025,3.92798172,-8.18243454,-6.929090881,11.41900065
7.26585325,-0.111518097,-5.804180145,-1.502725067,5.996592872
7.27586625,-3.197051697,-3.357368317,1.167272644,4.780751718
7.28588025,-5.030888214,-2.39397171,2.162103882,5.976255514
7.29589325,-6.013594666,-2.423610077,2.511177979,6.952928983
7.30590725,-4.144581299,-3.647465057,2.445913696,6.038546952
7.31592025,-1.527872772,-4.871320038,2.945874023,5.894262285
7.32593425,-0.746198273,-5.710774384,3.730841675,6.862137825
7.33594725,-0.938847656,-6.607858887,4.376898193,7.981382824
7.345961333,-0.93495575,-7.309898987,4.428540802,8.597717086
7.355974333,-0.894988861,-7.505691833,3.658392334,8.397633561
7.365988333,-1.118923187,-7.371121674,2.453098755,7.848765338
7.376001333,-1.72231842,-7.511380005,1.596130829,7.869869373
7.386015333,-2.432741089,-7.36333786,1.41575592,7.882977767
7.396028333,-3.905977478,-5.965544586,2.411335602,7.527212077
7.406042333,-5.517526245,-4.652924194,3.390150146,7.974077843
7.416055333,-6.377637634,-6.222111053,2.873125305,9.361825504
7.426069333,-6.401737518,-10.04111938,0.804427185,11.93538541
7.436082333,-5.444777527,-16.45707733,-2.181264038,17.47108781
7.446096333,-4.819378052,-21.11673752,-2.96503418,21.86171164
7.456109333,-3.488196259,-23.25159805,-3.257226563,23.73634028
7.466123333,-2.005828857,-21.17047577,-3.325783997,21.52378296
7.476136333,-0.821192322,-17.64051636,-0.776285706,17.67667372
7.486149333,-0.784668274,-12.68701721,1.88622757,12.85044608
7.496163333,-0.126636658,-11.4423555,3.293301544,11.90753422
7.506176333,-1.633553009,-7.13521225,1.767374725,7.530163524
7.516190333,-1.99026123,-5.821094971,-1.039588165,6.239152986
7.526203333,-4.154909821,-6.826105042,-3.894451447,8.88964216
7.536217333,-6.274951172,-8.129444733,-5.510041809,11.65433158
7.546230333,-7.01935318,-7.837701416,-7.54820343,12.94898674
7.556244333,-5.482948151,-5.924230499,-5.416935425,9.721235355
7.566257333,-4.237238617,-5.61527298,-2.918630676,7.61602828
7.576271333,-3.670068054,-6.486161957,-3.060834961,8.056575396
7.586284333,-4.208199005,-7.037914581,-3.266956329,8.826901165
7.596298333,-5.237758026,-6.842271423,-2.808609467,9.06306099
7.606311333,-5.17294281,-8.383466492,-2.792293396,10.23907956
7.616325333,-5.378315735,-9.291029205,-1.397643585,10.82602935
7.626338333,-4.293671265,-10.54841446,-0.112715607,11.38935316
7.636352333,-2.738405457,-11.03550156,0.436641998,11.37856824
7.646365333,-1.525477753,-10.72789124,0.613873444,10.85318264
7.656379333,-0.147293701,-10.11551468,0.806971893,10.14872092
7.666392333,0.511935425,-9.614805908,0.934207306,9.673640154
7.676406333,0.23635849,-9.091643829,0.916693726,9.140797571
7.686419333,0.279019775,-9.304351501,0.712218933,9.335741251
7.696433333,-0.492026825,-9.701924744,0.464035034,9.72546979
7.706446333,-2.066901855,-9.264384613,0.477656708,9.504160219
7.716459333,-3.854484558,-8.579708405,1.542392578,9.531391419
7.726473333,-5.750591583,-8.094567261,2.895428925,10.34286379
7.736486333,-4.899461517,-11.26871658,3.435954895,12.75909411
7.746500333,-1.495689697,-14.00802017,1.867815857,14.21092724
7.756513333,-2.086660767,-11.19506973,0.935404816,11.42622955
7.766527333,-4.037703552,-10.84180435,2.019749908,11.74423949
7.776540333,-4.726720734,-10.40905426,3.502266998,11.95642813
7.786554333,-3.698957977,-9.18864212,3.844605103,10.62517871
7.796567333,-3.886817322,-9.074279938,2.593506775,10.20667344
7.806581333,-5.302573242,-9.607321472,1.281784515,11.0481166
7.816594333,-4.90380249,-10.34064651,0.540376282,11.45723596
7.826608333,-3.806584167,-10.3753743,0.26090744,11.05470703
7.836621333,-2.607128448,-10.40142014,0.023800507,10.72320969
7.846635333,-1.475032654,-10.60200302,-0.144150238,10.70509078
7.856648333,-1.006656647,-10.22763153,0.220790863,10.27942376
7.866662333,-0.460442505,-10.03138962,0.276774445,10.04576473
7.876675333,-1.275497589,-9.764045563,1.484013977,9.958201511
7.886689333,-2.586471405,-9.534722443,3.187471619,10.38078714
7.896702333,-3.726800079,-9.348210297,4.263583832,10.929603
7.906716333,-4.237088928,-9.100475464,4.042792969,10.82200311
7.916729333,-4.511318665,-9.037306824,2.878214722,10.50281061
7.926742333,-4.952750702,-8.904233551,2.398612061,10.46749514
7.936756333,-5.738766174,-8.957073669,2.901566162,11.02640885
7.946769333,-6.27405304,-9.489516449,2.928959198,11.74706201
7.956783333,-5.935157776,-9.075926514,3.108286285,11.28095668
7.966796333,-5.80941925,-8.530760193,3.428620148,10.87559918
7.976810333,-5.807473297,-8.011040955,3.056943054,10.3560815
7.986823333,-5.487588501,-7.828271027,2.747835846,9.947163247
7.996837333,-5.061873779,-7.744894409,2.72164032,9.644339355
8.006850333,-4.690795441,-7.214098206,2.617606659,8.994367093
8.016864333,-5.337301025,-6.768624573,2.816542969,9.068295051
8.026877333,-5.455704803,-7.061715088,3.273243256,9.505085812
8.036891333,-4.65337326,-6.329587555,3.494632874,8.598256814
8.046904333,-3.606300659,-4.949158173,2.841540985,6.750846334
8.056918333,-3.087030487,-4.656067657,2.277813263,6.033005596
8.066931333,-3.589685211,-5.691913605,3.485202484,7.578281913
8.076945333,-4.308191071,-6.580465851,6.178401947,10.00178443
8.086958333,-5.690267029,-6.070326691,8.816216583,12.12244529
8.096972333,-6.286477203,-5.753435669,10.12494507,13.23390835
8.106985333,-5.407355347,-6.2201651,9.784552917,12.79325688
8.116999333,-4.279600525,-6.945706329,8.452323303,11.74732252
8.127012333,-2.651136932,-7.150779877,8.184230804,11.18676958
8.137026333,-0.868793335,-7.392676849,6.600374451,9.948437855
8.147039333,-0.304466858,-8.145162048,6.423592072,10.37780805
8.157052333,1.133592682,-8.015531616,7.15392334,10.80335127
8.167066333,2.435435486,-7.178023224,5.946683807,9.634231247
8.177079333,4.80904953,-7.265441437,4.88628891,9.989465249
8.187093333,4.93778183,-7.670948181,4.342769165,10.10370127
8.197106333,1.382525024,-7.381899261,4.437671814,8.72334473
8.207120333,0.41658371,-7.36573288,5.010530548,8.918126441
8.217133333,0.64934967,-7.668104095,4.818330231,9.079525408
8.227147333,1.026714935,-7.772736511,3.724704437,8.680034538
8.237160333,1.362616425,-7.296127625,3.342998199,8.140383209
8.247174333,1.582509155,-7.487130432,2.888543243,8.179556186
8.257187333,1.721420288,-7.497009888,3.090922394,8.289888196
8.267201333,1.699266357,-7.314539337,3.725452881,8.382660141
8.277214333,1.318009186,-7.460785217,4.331991577,8.727348698
8.287228333,0.899479523,-7.788603516,5.389093323,9.513870662
8.297241333,0.954115906,-7.966583405,6.026168518,10.0345152
8.307255333,1.419049072,-7.538623352,5.526507568,9.454460758
8.317268333,2.232008514,-7.358847198,4.601281586,8.961377479
8.327282333,3.151995392,-8.118816833,3.529809723,9.397330387
8.337295333,5.269492035,-10.22179367,1.86631897,11.65056903
8.347309333,4.126468964,-11.3613739,1.50242569,12.18055196
8.357322333,1.936373291,-10.33271301,2.721490631,10.85914412
8.367336333,2.08740921,-7.831264801,3.139122162,8.691379266
8.377349333,1.506467285,-6.86726944,2.542313232,7.476107932
8.387363333,0.618813171,-6.29036911,2.102827148,6.661347859
8.397376333,0.090561676,-6.87071228,1.631756744,7.062401768
8.407390333,0.230221252,-8.121960297,1.678010559,8.296683694
8.417403333,0.621806946,-9.143286438,2.461631012,9.489254871
8.427417333,4.633913727,-8.604407043,8.41759552,12.89825148
8.437430333,6.002966766,-8.188122711,8.873697052,13.48419308
8.447443333,5.024152222,-9.566007385,7.525600433,13.16758386
8.457457333,4.638554077,-9.870174866,3.768712921,11.53861919
8.467470333,4.78450058,-11.19731506,1.22864502,12.23849987
8.477484333,3.967349854,-13.90593246,-1.484463043,14.53679652
8.487497333,3.561992798,-14.24812088,-2.201172638,14.85065326
8.497511333,2.233355713,-11.76493469,-0.419278107,11.98237707
8.507524333,0.646206207,-8.636889496,1.482816467,8.787046563
8.517538333,-0.599653015,-6.307583313,2.439028015,6.789259801
8.527551333,-1.759890289,-6.335874481,2.757565613,7.130546079
8.537565333,-1.13149704,-8.172555084,2.887046356,8.741051357
8.547578333,0.058079224,-10.30457153,2.306852875,10.55978872
8.557592333,0.642613678,-10.91769653,2.266137543,11.16890457
8.567605333,1.652563477,-10.12808853,2.662812653,10.60187316
8.577619333,2.200723572,-10.59451859,2.035018158,11.01037271
8.587632333,2.114802246,-11.86387894,2.271077271,12.26302589
8.597646333,2.357297974,-12.31249603,3.73024292,13.07933961
8.607659333,2.896476746,-11.75340866,4.710105286,12.98912178
8.617673333,3.857927399,-10.21326141,4.699776764,11.88621951
8.627686333,4.249662781,-9.506131897,4.238735504,11.24246664
8.637700333,4.359384613,-9.173074493,4.046086121,10.93253597
8.647713333,4.442611542,-8.802295532,3.873045959,10.59328509
8.657727333,4.652475128,-8.282576294,3.439697113,10.10337127
8.667740333,4.291725311,-7.781717834,2.469414825,9.223450991
8.677754333,3.166515198,-7.975864105,1.352437592,8.687365203
8.687767333,3.000660095,-7.175029449,1.218466187,7.872081583
8.697781333,1.908231812,-7.053033142,0.935105438,7.366209835
8.707794333,-0.539328461,-8.792715454,0.032332764,8.809299952
8.717808333,0.483494568,-9.435478821,-0.021704865,9.447883291
8.727821333,2.153721313,-11.57123749,1.005309448,11.81281929
8.737835333,-1.238374786,-13.99739227,0.127085724,14.0526408
8.747848333,-0.418679352,-12.18705688,2.027084656,12.36158243
8.757861333,1.63115799,-8.756041718,1.327888641,9.005122497
8.767875333,2.648592224,-7.616012421,1.097218323,8.137725358
8.777888333,2.945424957,-8.289761353,0.767304382,8.830879202
8.787902333,1.979483643,-9.91762619,-0.447718964,10.12314758
8.797915333,0.402662659,-11.09447891,-2.161654816,11.31027635
8.807929333,-0.844543762,-12.4032074,-2.982996826,12.78479871
8.817942333,-2.52509903,-13.73364075,-2.356250153,14.1612474
8.827956333,-3.196153564,-13.57407257,-0.310454407,13.94873563
8.837969333,-2.1950354,-11.35269196,2.075434113,11.74773262
8.847983333,-1.723815308,-10.99209183,3.373534698,11.62662283
8.857996333,-1.504221954,-11.78529236,4.372108154,12.65982343
8.868010333,-1.953138428,-12.77892609,5.230123901,13.94524642
8.878023333,-1.366059265,-12.28270798,5.836213531,13.6672024
8.888037333,-0.957858124,-11.32679581,5.056185608,12.44101316
8.898050333,-0.634380798,-11.28323639,3.86241806,11.94286966
8.908064333,0.407303009,-11.14387619,3.120261383,11.57963313
8.918077333,0.69620224,-11.53441406,2.949167175,11.92581202
8.928091333,1.019230499,-11.21437958,0.644559631,11.27903352
8.938104333,0.151185608,-10.5359903,-1.152603149,10.59992654
8.948118333,-1.373244324,-10.8611142,-1.555565186,11.05754876
8.958131333,-1.779798889,-10.76411591,-0.698447571,10.93259824
8.968145333,-1.597028961,-10.85407883,1.059047699,11.0219377
8.978158333,-0.921783142,-11.80909286,3.295546875,12.29491715
8.988172333,0.105829926,-11.89127197,5.703589325,13.18880132
8.998185333,0.560284882,-11.9493512,7.501201172,14.11980638
9.008199333,-0.809815979,-12.27911545,8.194409637,14.78447927
9.018212333,-2.860401764,-12.12927704,7.568261719,14.58011815
9.028226333,-4.039050751,-11.17411331,7.439230042,14.01844795
9.038239333,-4.165088654,-9.505533142,6.436914368,12.21216567
9.048253333,-4.568200378,-8.688382416,4.079616394,10.63013234
9.058266333,-5.075345764,-7.618557129,2.67134491,9.536122429
9.068280333,-4.124373322,-6.315666504,0.455053711,7.556796448
9.078293333,-2.506986694,-6.159092102,-1.819765778,6.894269018
9.088307333,0.073946228,-6.091133423,-2.559826813,6.607578053
9.098320333,2.836601257,-6.210135956,-1.263821869,6.943294679
9.108333333,5.387746124,-7.033124542,1.112187195,8.929143827
9.118347333,7.866890717,-7.170389099,3.552562408,11.22154842
9.128360333,9.115294647,-7.237599335,5.197342072,12.74691356
9.138374333,9.60986618,-6.961423645,6.032605133,13.31177193
9.148387333,9.641001434,-6.535409546,6.538253632,13.35699244
9.158401333,8.71951767,-6.364764404,7.290140076,13.02637158
9.168414333,7.217690735,-6.158792725,7.984546051,12.40075655
9.178428333,5.403912506,-6.263874207,7.383994904,11.08881288
9.188441333,3.27039917,-6.59229126,6.451284485,9.78636226
9.198455333,1.036594391,-5.56842041,5.925577698,8.197213237
9.208468333,-0.738863525,-2.717299347,5.853727112,6.495826056
9.218482333,-1.806443481,-1.8194664,5.961802368,6.489744487
9.228495333,-2.095941467,-2.110161896,5.83995575,6.55368881
9.238509333,-0.325423279,-1.727108459,6.996151428,7.21352471
9.248522333,-0.621657257,-2.668650513,9.107061768,9.510348434
9.258536333,-1.196012878,-3.075504456,10.82758392,11.31926447
9.268549333,-1.324894867,-3.778442688,11.01274887,11.71804648
9.278563333,-0.314196625,-4.492607574,9.578431549,10.58435606
9.288576333,1.034049683,-4.306694183,8.086933136,9.220377491
9.298590333,1.120270386,-4.180805969,7.583679657,8.731915107
9.308603333,0.400716705,-3.320095825,7.807613983,8.493670954
9.318617333,-0.526904297,-2.488874359,7.645650787,8.057797446
9.328630333,-0.29368927,-2.170187073,7.232210541,7.556509421
9.338644333,0.096100159,-2.133663025,6.831044769,7.157159058
9.34865675,0.069156189,-2.188000031,6.653364258,7.004240334
9.35867075,-0.021854553,-2.641856232,7.09419754,7.570173097
9.36868375,0.482446747,-3.361110535,7.94951889,8.644343207
9.37869775,1.015937347,-3.674858093,8.85289032,9.639002942
9.38871075,1.094673615,-3.788471832,9.567204895,10.34805482
9.39872475,0.757574615,-4.074826355,9.842482452,10.67954072
9.40873775,0.154927826,-4.217479706,9.783654785,10.65509449
9.41875175,-0.261655884,-3.919449463,9.475894775,10.2578326
9.42876475,-0.409099274,-3.704047394,9.433682556,10.14306146
9.43877875,-0.666114807,-3.81332016,9.503736877,10.26187771
9.44879175,-0.978365479,-3.95372818,9.675579529,10.49790478
9.45880575,-1.370100861,-3.904480591,9.791887665,10.63029675
9.46881875,-1.49539032,-3.597918091,9.738897858,10.4893917
9.47883275,-1.214723969,-3.729344788,9.483229523,10.26231987
9.48884575,-0.784219208,-3.949536896,9.45194458,10.27390373
9.49885975,-0.163011017,-3.583098907,9.173822937,9.850086175
9.50887275,-0.207917633,-2.830014954,8.739276581,9.188425846
9.51888575,-0.565224609,-1.93412796,8.679101715,8.909945926
9.52889975,-0.736318817,-1.360670471,8.289012909,8.432160135
9.53891275,-0.258961487,-1.176104279,7.84069519,7.93264038
9.54892675,0.780177612,-1.182091827,7.89338562,8.019448531
9.55893975,1.63340332,-0.930914154,8.684490509,8.885661651
9.56895375,1.817370758,-0.658480682,9.592651978,9.785469087
9.57896675,1.459614716,-0.788560181,10.20622604,10.34018145
9.58898075,1.399140472,-1.07536377,10.27912445,10.42949667
9.59899375,1.846560059,-0.986298981,10.07494904,10.29014907
9.60900775,1.906136169,-1.108744354,9.744586029,9.99097723
9.61902075,1.520687714,-0.95591217,9.788594513,9.952027017
9.62903475,0.948876801,-0.238304443,10.04546036,10.09298915
9.63904775,0.135019226,-0.055235138,10.01207977,10.01314249
9.64906175,-0.138611755,-0.283660126,9.73979599,9.744911606
9.65907475,-0.050594788,-0.469723206,9.527687073,9.539393098
9.66908875,-0.049846344,-0.401614838,9.506431274,9.515041498
9.67910175,-0.688568115,-0.292342072,9.705666962,9.734452276
9.68911575,-1.279838562,-0.097746735,10.29289581,10.37261999
9.69912875,-1.375938721,-0.204325104,11.00945572,11.09698479
9.70914275,-0.986748047,-0.672252045,11.26332779,11.32643578
9.71915575,-0.332907715,-1.451830902,10.90212891,11.00341107
9.72916975,0.007933502,-1.82769928,10.53898407,10.69629528
9.73918275,-0.116457825,-1.778751068,10.43195663,10.58315818
9.74919675,-0.47975235,-1.596579895,10.15203873,10.28800855
9.75920975,-0.472567291,-1.52697464,9.486372986,9.620095832
9.76922375,0.310454407,-1.855541382,9.180708618,9.371490089
9.77923675,1.059496765,-2.165995789,9.60522583,9.903253728
9.78925075,1.291214905,-2.758164368,9.944420471,10.40029832
9.79926375,1.253343658,-3.141217804,10.37732025,10.9145268
9.80927775,1.545236664,-3.139720917,10.86141357,11.41121854
9.81929075,1.988764343,-3.090922394,11.04133942,11.63701684
9.82930475,2.17991684,-2.896626434,11.09417953,11.67147384
9.83931775,2.045047302,-2.71340744,10.99179245,11.50496848
9.84933175,1.637594604,-2.542462921,10.69705536,11.11633155
9.85934475,1.1771521,-2.285896454,10.11416748,10.43587052
9.86935875,0.67509613,-2.247276764,9.390572205,9.679300283
9.87937175,0.419128418,-2.434687042,8.798852692,9.139101614
9.88938575,0.950673065,-2.379751282,8.502618713,8.880400916
9.89939875,1.793420563,-2.527494049,8.420589294,8.972787056
9.90941275,2.74035141,-2.785407715,8.265362091,9.142441276
9.91942575,3.605252838,-3.097957764,8.106692047,9.397534053
9.92943975,4.448599091,-3.160677338,7.943381653,9.637283185
9.93945275,5.258864136,-2.777025146,7.885302429,9.876513305
9.94946675,5.65030014,-2.816093903,7.91329422,10.12306781
9.95947975,4.370910645,-3.790866852,7.407346344,9.399165453
9.96949375,4.001628571,-2.289788361,7.635771332,8.919706597
9.97950675,2.724783783,-2.292782135,7.668104095,8.454650614
9.98952075,0.62599823,-2.884052582,7.904612274,8.437566491
9.99953375,-0.165106659,-2.584525452,8.865164795,9.235701319
10.00954775,-0.277971954,-2.749033356,9.236841888,9.641249964
10.01956075,0.778830414,-2.313588867,9.480984192,9.790216111
10.02957475,1.861379242,-1.553319855,9.235943756,9.548831987
10.03958775,2.920277252,-1.465452576,8.675658875,9.270524655
10.04960175,3.689377899,-2.402653656,7.885452118,9.031312694
10.05961475,4.519102478,-3.531156921,7.063960419,9.098950116
10.06962875,5.453010406,-3.665128326,6.922354889,9.543976391
10.07964175,5.79310318,-3.502416687,7.129075012,9.83110765
10.08965575,5.4093013,-3.588188324,7.50254837,9.920880407
10.09966875,4.578229523,-3.584595795,8.012986908,9.900377354
10.10968275,3.973487091,-3.540437622,8.150700531,9.734331891
10.11969575,4.004472656,-3.433709564,8.084687805,9.653410772
10.12970975,4.212390289,-3.692671051,7.854466553,9.647419151
10.13972275,4.717440033,-3.986060944,7.590565338,9.785683648
10.14973575,5.173990631,-3.835623779,7.295079803,9.731411931
10.15974975,4.876858521,-4.043990479,6.386469269,8.99581001
10.16976275,4.656217346,-4.385879517,6.044131165,8.800444344
10.17977675,5.029690704,-4.349954224,6.573131104,9.350184107
10.18979075,5.051096191,-4.45563446,7.534282379,10.10602108
10.19980375,4.829407196,-4.666545868,8.700357513,10.99072541
10.20981675,5.00334549,-5.114863586,9.483229523,11.87968593
10.21983075,5.458848267,-5.294789429,9.45897995,12.13697331
10.22984375,5.353617096,-5.43968811,8.436605988,11.37663146
10.23985775,5.156776428,-5.450166321,6.934479675,10.21683241
10.24987075,5.049898682,-5.187462616,5.895639954,9.336477684
10.25988475,4.747677155,-4.968318329,5.847739563,9.023341032
10.26989775,4.285887451,-4.875810699,6.486161957,9.17674551
10.27991175,3.651656342,-4.795577545,7.080126801,9.298405968
10.28992475,3.335813141,-4.233646088,7.402556305,9.15692352
10.29993875,3.125949554,-3.908222809,7.550897827,9.058798162
10.30995175,2.684367828,-3.948938141,7.971373444,9.292079297
10.31996575,2.630180511,-3.723506927,8.23033493,9.40854752
10.32997875,3.101400604,-3.666325836,8.161178741,9.46918525
10.33999275,4.12691803,-3.588487701,8.001610565,9.691979573
10.35000646,5.240153046,-3.671415253,7.680977325,9.996794815
10.36002046,5.815257111,-3.862567749,7.223977661,10.04601902
10.37003346,5.574407959,-3.75134903,7.257208557,9.890081884
10.38004746,5.525908813,-2.798730011,8.233328705,10.30321598
10.39006046,5.202132111,-2.447709961,8.835676117,10.54147215
10.40007446,4.873565369,-3.006797333,8.775201874,10.47838907
10.41008746,5.007237396,-3.01293457,8.593030701,10.39184188
10.42010146,4.933889923,-2.237097931,8.924591217,10.44012477
10.43011446,4.02393219,-1.717079315,9.477391663,10.43845508
10.44012846,2.075883179,-1.99969162,8.889863434,9.345465714
10.45014146,1.776356049,-2.348616028,7.899672546,8.430674018
10.46015546,3.297043762,-1.870659943,7.564220123,8.460927388
10.47016846,3.268303528,-1.188528442,7.751929779,8.496282899
10.48018246,3.135230255,-0.696501617,8.385412445,8.979416748
10.49019546,2.913092194,-0.657283173,8.994645538,9.477435078
10.50020946,3.075803833,-0.825832672,8.875643005,9.42971938
10.51022246,3.71153183,-0.626147919,9.278904419,10.01327104
10.52023646,3.18148407,-0.804726563,9.214687958,9.781610291
10.53024946,2.737058258,-0.352666626,9.032666473,9.444835905
10.54026346,0.942140808,-1.797761536,9.587263184,9.79975465
10.55027646,2.801873474,-2.22781723,10.34049683,10.94255634
10.56029046,4.430037689,-1.156345367,11.03999222,11.95172777
10.57030346,4.876409454,-0.21300705,10.98595459,12.02147825
10.58031746,2.993624725,-2.033521271,7.979456635,8.761776414
10.59033046,3.021317139,-2.729424133,7.794141998,8.793563717
10.60034446,3.366199951,-2.418670349,8.461903381,9.422583361
10.61035746,3.853287048,-2.640509033,9.726324005,10.78987895
10.62037146,4.787045288,-2.373015289,11.76373718,12.92023671
10.63038446,5.204078064,-2.214345245,13.29310684,14.44619129
10.64039846,3.866160278,-2.85740799,13.01558395,13.87506401
10.65041146,1.407373352,-4.207450562,13.10015808,13.83103328
10.66042546,0.309406586,-5.407205658,13.24281143,14.30753858
10.67043846,-0.508642273,-5.964347076,12.76066406,14.09491754
10.68045246,-0.778231659,-5.870492249,11.61958694,13.0415921
10.69046546,-1.31636261,-5.904770966,10.63732956,12.23731632
10.70047946,-2.103874969,-5.494474182,11.00556381,12.47950204
10.71049246,-3.625760193,-4.924309845,11.31661697,12.86315607
10.72050646,-5.821843414,-3.678600311,12.08047852,13.90553567
10.73051946,-7.2884935,-2.218386841,13.26601318,15.29805489
10.74053346,-7.150330811,-1.808838501,13.99514694,15.81971129
10.75054646,-5.702242126,-1.972897339,14.63581467,15.8308231
10.76056046,-3.650458832,-2.750530243,15.17110153,15.84467065
10.77057346,-4.797673187,-2.121987305,17.57345581,18.33976137
10.78058746,-7.137607269,-0.740510101,22.26844254,23.39609638
10.79060046,-5.170996857,-0.591719513,21.9716098,22.5796585
10.80061446,-2.500250702,-1.845661926,19.92237122,20.16329825
10.81062746,-0.584534454,-2.706222382,18.00635559,18.21796261
10.82064146,0.780327301,-3.07969574,15.84365295,16.15904624
10.83065446,2.043400726,-2.804567871,13.93931305,14.36473236
10.84066846,2.729723511,-2.099683685,12.69031036,13.14929805
10.85068146,2.503843231,-1.438807983,12.44482086,12.77548299
10.86069546,1.735790405,-1.0577005,12.58283386,12.74595648
10.87070846,1.318907318,-0.570314026,12.57145752,12.65331256
10.88072246,0.827628937,-0.646954651,12.5252037,12.56917849
10.89073546,0.213755493,-0.692609711,11.90489365,11.92693977
10.90074946,-0.212557983,-0.686322784,11.28488297,11.30773202
10.91076246,-0.618813171,-1.038839722,10.67594925,10.74420821
10.92077646,-1.046324158,-1.187181244,9.872120819,9.998147979
10.93078946,-0.457598419,-0.609532471,9.421258392,9.452038713
10.94080346,-0.202977905,-0.418379974,8.667725372,8.680190376
10.95081646,0.282163239,-0.292042694,7.304210815,7.31549046
10.96083046,0.800235901,-0.628243561,5.076393585,5.177339017
10.97084346,1.195563812,-1.213077393,2.999312897,3.449174893
10.98085746,1.478924561,-1.044378204,2.411784668,3.015733571
10.99087046,0.988095245,-1.191671906,3.707639923,4.017836227
11.00088446,0.22588028,-0.939296722,5.191055145,5.280185011
11.01089746,-0.001347198,0.440234528,6.652017059,6.666568773
11.02091146,-0.180075531,1.895957336,8.068371735,8.290096734
11.03092446,-0.715362396,2.884950714,9.091793518,9.565322439
11.04093846,-1.512005768,3.104993134,9.442364502,10.05412309
11.05095146,-2.051334229,2.905757446,9.294621735,9.951954162
11.06096546,-1.793270874,2.522853699,8.967252502,9.486423386
11.07097846,-1.171763306,2.115999756,8.5346521,8.870781852
11.08099246,-0.70787796,2.12258606,7.867339783,8.179333594
11.09100546,-0.4352948,2.340532837,6.924899597,7.322691442
11.10101946,-0.271086273,2.606380005,5.747597809,6.316770145
11.11103246,-0.363294525,2.858605499,4.703219604,5.515784891
11.12104646,-0.650996246,3.128194885,4.384981384,5.425630018
11.13105946,-1.137035522,3.383713531,4.77162735,5.959093438
11.14107346,-1.55975647,3.504212952,5.392536163,6.617536923
11.15108646,-1.830543365,3.570974121,5.960305481,7.185261764
11.16110046,-1.849254456,4.065845032,6.309678955,7.730645923
11.17111346,-1.321751404,4.650828552,6.542594604,8.135279783
11.18112746,-1.1572435,4.518204346,6.424639893,7.939104532
11.19114046,-1.030606842,4.215533752,6.158792725,7.534162402
11.20115446,-0.592617645,4.021686859,6.104605408,7.334259884
11.21116746,-0.255518646,3.92798172,6.142776031,7.295754076
11.22118146,-0.015867004,4.174069977,6.369404755,7.61527602
11.23119446,0.127834167,4.341272278,6.631210327,7.926912196
11.24120846,-0.078586578,4.284240875,6.925198975,8.143664812
11.25122146,-0.367336121,4.285288696,7.010072479,8.224338952
11.26123546,-0.489931183,4.732408905,6.875053253,8.360746608
11.27124846,-0.840352478,5.182971954,6.51505188,8.367514061
11.28126246,-1.186133423,5.451513519,6.064339142,8.240274351
11.29127546,-1.186283112,5.643863525,5.895041199,8.246937241
11.30128946,-1.065184937,5.770500183,6.131699066,8.487109328
11.31130246,-0.723445587,5.848188629,6.534062347,8.798787105
11.32131646,-0.446521454,5.778283997,7.034471741,9.114369974
11.33132946,-0.335452423,5.924230499,7.392527161,9.479371981
11.34134346,0.030835876,6.544540558,7.234156494,9.755254079
11.35135587,-0.247435455,6.52553009,7.267088013,9.770073462
11.36136987,-0.986897736,6.109844513,7.252568207,9.534354341
11.37138287,-1.57966507,6.007307739,7.145241394,9.467711581
11.38139687,-1.570084991,6.353687439,6.934329987,9.535168762
11.39140987,-1.04961731,6.708599396,6.788533173,9.601624081
11.40142387,-0.608784027,6.876999207,6.92804306,9.780670566
11.41143687,-0.572858734,6.80874115,7.643405457,10.25225683
11.42145087,-0.716859283,6.484515381,8.248596954,10.51675704
11.43146387,-0.993633728,6.223458252,8.62940506,10.68575558
11.44147787,-1.222507782,6.135141907,8.837472382,10.82753017
11.45149087,-1.00036972,6.146967316,8.674910431,10.67895209
11.46150487,-0.41658371,6.227799225,8.350684662,10.42559157
11.47151787,0.186961212,6.050268402,8.003107452,10.03446217
11.48153187,0.682879944,5.724545746,7.795040131,9.695328754
11.49154487,0.797391815,5.53563858,7.840994568,9.631216123
11.50155887,0.498912506,5.534890137,8.120613098,9.840136158
11.51157187,0.210162964,5.461392975,8.479267273,10.08806003
11.52158587,-0.010178833,5.396278381,8.861422577,10.37519803
11.53159887,-0.087418213,5.268294525,9.090296631,10.50695303
11.54161287,0.022902374,4.941374359,9.070986786,10.32959372
11.55162587,0.182620239,4.582121429,8.79316452,9.917102865
11.56163987,0.156574402,4.372407532,8.499624939,9.559607067
11.57165287,0.060174866,4.368066559,8.493338013,9.550938021
11.58166687,-0.073946228,4.491410065,8.646319885,9.743566081
11.59167987,-0.233065338,4.515210571,8.625213776,9.738365296
11.60169387,-0.217348022,4.545298004,8.494685211,9.636734454
11.61170687,-0.206420746,4.486170959,8.267308044,9.408332568
11.62172087,-0.302371216,4.424798584,7.894134064,9.054701733
11.63173387,-0.180674286,4.437372437,7.518864441,8.732481882
11.64174787,0.148491211,4.551435242,7.516170044,8.788084235
11.65176087,0.180374908,4.7271698,8.029003601,9.318989658
11.66177487,-0.204624481,4.759502563,8.514294434,9.756430983
11.67178787,-0.480800171,4.742587738,8.804391174,10.01202333
11.68180187,-0.684376831,4.648583221,8.962761841,10.11972319
11.69181487,-0.794547729,4.5095224,8.759185181,9.883846589
11.70182887,-0.491877136,4.52119812,8.396339722,9.548910738
11.71184187,-0.224233704,4.52823349,8.128696289,9.307571254
11.72185587,-0.182919617,4.514611816,7.948920135,9.143331491
11.73186887,-0.098644867,4.578379211,7.916737061,9.145819411
11.74188287,0.028440857,4.690795441,8.357570343,9.584015483
11.75189587,-0.020207977,4.703668671,8.918603668,10.08297569
11.76190987,-0.60264679,4.381239166,8.959319,9.991388128
11.77192287,-0.881516876,4.299209747,8.803942108,9.837157775
11.78193687,-0.714763641,4.628225555,8.602760468,9.794837748
11.79194987,-0.609382782,4.882995758,8.297245789,9.646723932
11.80196387,-0.430055695,4.913981323,7.842192078,9.264563504
11.81197687,-0.367635498,4.746779022,7.372019806,8.77574743
11.82199087,-0.376167755,4.634961548,7.07204361,8.463933574
11.83200387,-0.387993164,4.600533142,6.82041687,8.23611135
11.84201787,-0.405656433,4.606520691,6.603667603,8.061824596
11.85203087,-0.244890747,4.842729492,6.757697296,8.317359747
11.86204487,-0.148191833,4.933740234,7.139253845,8.679441168
11.87205787,0.130827942,5.005141754,7.503446503,9.020547065
11.88207187,0.477207642,4.9740065,7.723339233,9.198828008
11.89208487,0.696950684,4.80665451,7.737859039,9.135870531
11.90209887,0.923280029,4.69902832,7.673343201,9.045082036
11.91211187,1.152303772,4.814737701,7.887996826,9.312894128
11.92212587,1.208437042,4.974605255,8.356971588,9.800305692
11.93213887,1.24735611,4.978646851,8.756041718,10.14943783
11.94215288,1.13493988,4.709656219,8.785231018,10.0324092
11.95216587,1.056053925,4.587659912,8.555758209,9.765391538
11.96217988,0.974922638,5.192102966,8.034542084,9.615730542
11.97219287,1.006956024,6.033203888,8.018226013,10.08491239
11.98220687,0.943787384,6.275849304,7.730524292,10.00190107
11.99221987,0.542022858,6.386618958,7.098538513,9.564096377
12.00223387,0.452509003,6.62148056,6.785988464,9.492018155
12.01224687,0.287252655,6.768325195,6.996450806,9.738740366
12.02226087,-0.08068222,6.581214294,7.115603027,9.692816807
12.03227387,-0.160615997,6.368057556,7.283104706,9.675823928
12.04228787,0.022602997,6.298452301,7.409292297,9.724640077
12.05230087,0.112715607,6.252348175,7.525151367,9.784296889
12.06231487,0.144599304,6.243516541,7.617808685,9.850554143
12.07232887,0.341439972,6.198609924,8.000712433,10.12673421
12.08234187,0.53588562,6.198011169,8.522078247,10.55122427
12.09235587,0.652642822,6.276747437,8.966803436,10.9648103
12.10236887,0.784518585,6.281088409,9.253457336,11.21133416
12.11238287,0.81909668,6.173013153,9.397158508,11.27313616
12.12239587,0.741108856,6.030060425,9.415570221,11.20552692
12.13240987,0.551004181,5.67724411,9.18864212,10.81507514
12.14242287,0.47271698,5.520070953,8.711135101,10.3236873
12.15243687,0.508043518,5.585185547,8.338260498,10.04883048
12.16244987,0.380508728,5.783672791,8.087831268,9.950310169
12.17246387,0.094603271,5.885610809,8.078999634,9.995979165
12.18247687,-0.145497437,5.862708435,8.35906723,10.21109811
12.19249087,-0.266894989,5.784121857,8.720715179,10.4679593
12.20250387,-0.527952118,5.588029633,8.844058685,10.47483569
12.21251787,-0.864003296,5.371280365,8.713230743,10.27217331
12.22253087,-1.061442719,5.353467407,8.687484283,10.25956418
12.23254487,-1.036145325,5.251080322,9.043294373,10.50850202
12.24255787,-0.88346283,5.294040985,9.562714233,10.96598742
12.25257187,-0.753383331,5.501210175,10.05309448,11.48458134
12.26258487,-0.839154968,5.484744415,10.28181885,11.68342421
12.27259887,-1.14901062,5.426665192,10.30142807,11.69992909
12.28261187,-1.27070755,5.386698303,10.11326935,11.52863536
12.29262587,-1.341061249,5.194198608,9.595945129,10.9936485
12.30263887,-1.265169067,4.957391052,8.791068878,10.17149305
12.31265287,-1.135987701,4.915328522,8.001909943,9.459465379
12.32266587,-1.193767548,4.818629608,7.343878326,8.86435678
12.33267987,-1.185834045,4.712949371,7.016658783,8.53531456
12.34269287,-1.203946381,4.58556427,6.942263489,8.406658605
12.35270675,-1.286574554,4.227957916,7.14224762,8.398964417
12.36271975,-1.484912109,4.091890869,7.976911926,9.087335073
12.37273375,-1.85224823,4.08246048,8.641829224,9.735426
12.38274675,-1.960622864,4.300257568,8.872050476,10.05233987
12.39276075,-1.847757568,4.37734726,8.693471832,9.90716052
12.40277375,-1.649420013,3.949686584,8.216862946,9.264850088
12.41278775,-0.951122131,4.161196747,7.738158417,8.837380118
12.42280075,-0.351319427,4.861440582,7.209308167,8.702364858
12.43281475,-0.397573242,5.061574402,6.811734924,8.495724371
12.44282775,-0.559536438,4.868176575,6.662345581,8.270373198
12.45284175,-0.570763092,4.671186218,6.75605072,8.233466617
12.46285475,-0.490080872,4.63585968,7.093299408,8.488007465
12.47286875,-0.452658691,4.676125946,7.312144318,8.691289218
12.48288175,-0.495918732,4.769681396,7.546107788,8.940891385
12.49289575,-0.562679901,4.936434631,7.698191528,9.162267642
12.50290875,-0.302670593,5.500012665,7.619155884,9.401770322
12.51292275,-0.238154755,5.697003021,7.435038757,9.369757864
12.52293575,-0.231867828,5.500910797,7.052883453,8.947454794
12.53294975,-0.104333038,5.26425293,6.816824341,8.613497454
12.54296275,0.126936035,5.193300476,6.776857452,8.53886875
12.55297675,0.064216461,5.201832733,6.778953094,8.545021509
12.56298975,-0.217797089,5.166356506,6.969357147,8.678168826
12.57300375,-0.387544098,5.42217453,7.094047852,8.93731962
12.58301675,-0.217048645,6.028413849,7.020999756,9.256528573
12.59303075,-0.520168304,6.139632568,7.034022675,9.351103578
12.60304375,-0.845591583,5.94174408,7.079827423,9.281341723
12.61305775,-1.059945831,5.19988678,7.339237976,9.05686048
12.62307075,-0.73362442,5.235512695,7.961943054,9.557266093
12.63308475,0.194445648,5.783373413,8.263266449,10.08795269
12.64309775,0.674048309,5.928272095,8.034392395,10.0075078
12.65311175,0.916544037,5.746849365,7.779023438,9.714913084
12.66312475,0.535286865,5.23266861,7.797135773,9.405460067
12.67313875,0.518821106,5.397326202,8.130642242,9.772801479
12.68315175,0.540975037,5.483546906,8.450077972,10.08790159
12.69316575,0.580193481,5.532046051,8.407566376,10.08103816
12.70317875,0.989592133,5.834417267,8.100405121,10.03176358
12.71319275,1.490749969,5.982758789,7.723339233,9.882596173
12.72320575,1.408271484,5.872138824,7.495363312,9.625264366
12.73321975,1.150956573,5.807772675,7.275769958,9.380391941
12.74323275,0.988394623,5.809119873,7.140900421,9.258253424
12.75324675,0.804277496,5.625002747,7.08491684,9.08204629
12.76326075,0.562679901,5.685027924,7.178172913,9.174002263
12.77327375,0.104333038,6.212830353,7.324119415,9.604835844
12.78328775,-0.551453247,6.710695038,7.504194946,10.08218579
12.79330075,-1.059646454,6.992858276,8.032745819,10.70270633
12.80331475,-1.459914093,6.827302551,9.335486755,11.65738917
12.81332775,-1.256487122,6.571783905,10.47925827,12.43309927
12.82334175,-0.749192047,6.490951996,11.12591354,12.90270122
12.83335475,-0.469573517,6.084547119,11.00960541,12.58783636
12.84336875,0.244890747,5.782774658,10.70439011,12.16899428
12.85338175,0.933608551,5.547913055,10.17089951,11.62317345
12.86339575,1.485061798,5.352569275,9.460776215,10.97094768
12.87340875,1.841021576,5.652096405,8.999435577,10.78542512
12.88342275,1.841021576,6.230493622,8.999734955,11.09971353
12.89343575,1.602417755,6.612499237,9.053473206,11.3251166
12.90344975,1.194216614,6.48107254,9.124425659,11.2554697
12.91346275,1.089584198,6.183341675,9.165440369,11.1097347
12.92347675,1.012644196,5.994584198,9.248966675,11.06814675
12.93348975,0.78511734,5.937103729,9.351653137,11.10491001
12.94350375,0.582588501,5.819897461,9.542356567,11.19228237
12.95351675,0.508342896,5.648503876,9.791438599,11.31531168
12.96353075,0.513731689,5.394182739,9.785600739,11.18566536
12.97354375,0.74305481,5.059029694,9.648934937,10.92006673
12.98355775,0.963995361,4.678970032,9.640702057,10.75942302
12.99357075,0.965791626,4.35504364,9.698781281,10.67546331
13.00358475,0.938548279,4.210294647,9.685608673,10.60275763
13.01359775,1.033600616,4.249962158,9.772278442,10.7064436
13.02361175,1.075064392,4.285737762,9.624685364,10.59046174
13.03362475,1.115330658,4.279301147,9.186845856,10.19580882
13.04363875,1.29181366,4.260140991,8.760831757,9.826991242
13.05365175,1.554816742,4.221521301,8.293503571,9.435088694
13.06366575,1.563049622,4.107608185,7.800129547,8.953077129
13.07367875,1.501078491,4.106560364,7.313641205,8.520940226
13.08369275,1.467847595,4.211342468,6.862180023,8.184100233
13.09370575,1.206491089,4.31642395,6.594087524,7.973024943
13.10371975,0.87642746,4.397854614,6.623426514,7.99868921
13.11373275,0.639170837,4.380939789,6.88598053,8.186446155
13.12374675,0.44233017,4.243824921,7.194938049,8.364976956
13.13375975,0.17663269,4.182003479,7.467221832,8.560359461
13.14377375,0.072000275,4.234394531,7.748636627,8.830438872
13.15378675,0.15911911,4.290827179,7.945926361,9.031847126
13.16380075,0.316441956,4.404141541,8.223748627,9.334165185
13.17381375,0.511186981,4.428690491,8.605005798,9.691271144
13.18382775,0.648750916,4.265230408,8.703201599,9.713845081
13.19384175,0.603095856,4.126019897,8.566984863,9.52790609
13.20385475,0.530347137,4.190236359,8.450077972,9.446860143
13.21386875,0.518821106,4.349505157,8.301287384,9.386093047
13.22388175,0.433947601,4.302652588,7.923473053,9.026768804
13.23389575,0.326770477,4.211342468,7.464228058,8.576531049
13.24390875,0.432301025,4.218826904,7.062313843,8.237818973
13.25392275,0.649798737,4.231999512,6.706054688,7.956332556
13.26393575,0.608035583,4.344864807,6.43541748,7.788591375
13.27394975,0.49846344,4.562811584,6.492149506,7.950831438
13.28396275,0.334404602,4.681065674,6.619085541,8.113969169
13.29397675,0.404458923,4.828658752,6.804549866,8.353528072
13.30398975,0.689765625,5.003644867,6.984775085,8.619705422
13.31400375,0.929566956,5.059927826,7.1597612,8.816413373
13.32401675,0.990190887,4.972359924,7.294930115,8.883740574
13.33403075,0.940194855,4.860093384,7.498357086,8.984978189
13.34404375,0.845441895,4.726870422,7.739206238,9.107875119
13.35405875,0.763412476,4.715045013,7.848329315,9.187530742
13.36407175,0.681981812,4.831802216,8.067323914,9.428315171
13.37408575,0.758921814,4.981940002,8.269104309,9.683686002
13.38409875,1.026864624,5.154531097,8.433163147,9.936895011
13.39411275,1.472937012,5.658383331,8.625962219,10.42084783
13.40412575,2.111209717,6.528972931,8.736731873,11.1092384
13.41413975,2.173480225,7.118596802,8.576415253,11.35576221
13.42415275,2.157912598,7.38324646,8.416996765,11.40240105
13.43416675,2.0968396,7.305258636,8.181835785,11.16718303
13.44417975,2.166295166,6.785988464,8.423134003,11.03139432
13.45419375,2.169887695,6.934928741,8.899443512,11.48920119
13.46420675,1.881138153,7.138056335,8.16716629,11.00877533
13.47422075,2.163600769,6.749314728,7.666307831,10.44062706
13.48423375,1.449136505,7.062014465,7.740254059,10.57750338
13.49424775,0.163460083,7.110812988,7.853119354,10.59536994
13.50426075,-1.034498749,6.414311371,8.493487701,10.69359207
13.51427475,-1.916764069,5.811215515,9.369915161,11.19104644
13.52428775,-1.790576477,5.726192322,10.14365616,11.78512634
13.53430175,-1.047821045,5.872737579,10.60574524,12.16835271
13.54431475,-0.130827942,5.772296448,10.82294357,12.26672857
13.55432875,0.274828491,5.260510712,10.76321777,11.98312816
13.56434175,0.260608063,4.569846954,10.24903702,11.2247128
13.57435575,-0.271086273,4.404889984,9.994416504,10.9254247
13.58436875,-1.29765152,4.864733734,9.601333923,10.84136278
13.59438275,-1.880689087,5.789660339,9.181756439,11.01643362
13.60439675,-2.055974579,6.339766388,9.366921387,11.49603782
13.61440975,-2.477947083,6.064788208,9.789043579,11.77910234
13.62442375,-2.81055542,5.683381348,9.879605255,11.73910752
13.63443675,-2.573747864,5.494623871,9.975256348,11.67565025
13.64445075,-2.021695862,5.275329895,9.975106659,11.46381754
13.65446375,-1.562001801,4.886588287,9.916728058,11.16512831
13.66447775,-1.227597198,4.461622009,9.583221588,10.64195479
13.67449075,-1.091380463,4.166884918,9.002429352,9.97986851
13.68450475,-1.086291046,3.963907013,8.334967346,9.293237741
13.69451775,-1.222358093,4.001778259,7.755821686,8.812556869
13.70453175,-1.246757355,4.349056091,7.366331635,8.644740282
13.71454475,-1.219663696,4.595743103,7.127727814,8.568135036
13.72455875,-1.128203888,4.632267151,6.983577576,8.455832231
13.73457175,-0.978814545,4.612358551,6.90813446,8.363865795
13.74458575,-0.849184113,4.636907501,7.043602753,8.475515593
13.75459875,-0.680185547,4.554279327,7.559430084,8.851502458
13.76461275,-0.555943909,4.357887726,7.910599823,9.048637943
13.77462575,-0.479602661,4.277504883,8.101452942,9.173909009
13.78463975,-0.207318878,4.343218231,8.468190308,9.519284259
13.79465275,0.066162415,4.202211456,8.700956268,9.662794553
13.80466675,0.197589111,3.965254211,8.634943542,9.503921948
13.81467975,0.278121643,3.964805145,8.453071747,9.340848647
13.82469375,0.405207367,4.062851257,8.116571503,9.085685792
13.83470675,0.578247528,4.190835114,7.823630676,8.894192831
13.84472075,0.743354187,4.311933289,7.626939697,8.792926321
13.85473375,0.952169952,4.405788116,7.562423859,8.803854336
13.86474775,1.224453735,4.4497966,7.623047791,8.911275686
13.87476075,1.375339966,4.468058624,7.652835846,8.967775888
13.88477475,1.528920593,4.454287262,7.838000793,9.143988716
13.89478775,1.644180908,4.408033447,8.167615356,9.425711132
13.90480175,1.711241455,4.342469788,8.440797272,9.645333056
13.91481475,1.665586395,4.27316391,8.647068329,9.78804876
13.92482875,1.664239197,4.17137558,8.622818756,9.722297549
13.93484175,1.767524414,4.161645813,8.539591827,9.662715302
13.94485575,2.025887146,4.213887177,8.764424286,9.933589328
13.95486975,2.257455597,4.039499817,8.851243744,9.987901699
13.96488275,2.360890503,3.716621246,8.795709229,9.836238015
13.97489675,2.464475098,3.553909607,8.788973236,9.795405124
13.98490975,2.634970551,3.492387543,8.846304016,9.868988565
13.99492375,2.679577789,3.452720032,9.043294373,10.04403235
14.00493675,2.517614594,3.353626099,9.364676056,10.26071873
14.01495075,2.23140976,3.178340607,9.440418549,10.20796458
14.02496375,2.051483917,3.041974182,9.300908661,9.998454636
14.03497775,2.109413452,2.978356476,9.10331955,9.807683683
14.04499075,2.221230927,2.928061066,8.905880127,9.634423141
14.05500475,2.18455719,2.871927795,8.876541138,9.581922664
14.06501775,2.010020142,2.927911377,9.174721069,9.838107171
14.07503175,1.761387177,2.915636902,9.602232056,10.18853688
14.08504475,1.398841095,2.776725769,10.14006363,10.60602908
14.09505875,1.032253418,2.476599884,10.53164932,10.86806016
14.10507175,1.058748322,2.165097656,10.84270248,11.1073306
14.11508575,1.19346817,1.819167023,11.28682892,11.49461796
14.12509875,1.170266418,1.699715424,11.68694687,11.86774128
14.13511275,0.637823639,1.391057281,11.79786621,11.8967015
14.14512575,0.070503387,1.262624359,11.49968628,11.56900927
14.15513975,-0.202977905,1.348994751,11.16962265,11.25262001
14.16515275,-0.36269577,1.633253632,10.98595459,11.11261733
14.17516675,-0.461789703,1.983674927,10.93925171,11.12723883
14.18517975,-0.771944733,2.329755249,10.97772171,11.24873469
14.19519375,-1.254690857,2.496807861,10.97577576,11.32589741
14.20520675,-1.77740387,2.559826813,10.86964645,11.3075679
14.21522075,-2.395767975,2.62568985,10.75797867,11.32996277
14.22523375,-2.971321106,2.74499176,10.73582474,11.47264842
14.23524775,-3.576213226,2.909649353,10.72819061,11.67687605
14.24526175,-4.071682892,3.064876556,10.69406158,11.84630841
14.25527475,-4.395609283,3.219055939,10.78177917,12.08016822
14.26528875,-4.439767456,3.507057037,11.26302841,12.60423711
14.27530175,-4.219575348,3.823049927,11.65790726,12.97410222
14.28531575,-3.962110748,3.869303741,11.62228134,12.87428664
14.29532875,-3.822301483,3.659440155,11.49953659,12.65862681
14.30534275,-3.864513702,3.342100067,11.44564865,12.53423201
14.31535575,-3.64252533,3.175496521,11.50028503,12.47430659
14.32536975,-3.212918701,3.222498779,11.56644745,12.4294027
14.33538275,-2.940485229,3.278332672,11.53516251,12.34722206
14.34539675,-2.947819977,3.267555084,11.19042938,12.02465254
14.35540933,-2.920726318,3.342399445,10.56458084,11.45917295
14.36542333,-2.784359894,3.59327774,10.1351239,11.10788195
14.37543633,-2.898871765,3.78053833,9.687404938,10.79545006
14.38545033,-5.568719788,4.370012512,10.46084656,12.63079412
14.39546333,-4.886887665,4.789739685,9.523196411,11.72665968
14.40547733,-3.162473602,4.525090027,7.959847412,9.686942235
14.41549033,-3.007396088,4.80201416,7.013215942,9.016039545
14.42550433,-2.080972595,4.92954895,6.342311096,8.297940096
14.43551733,-1.411265259,4.892575836,6.369255066,8.154531135
14.44553133,-0.364492035,5.278323669,6.244115295,8.184285615
14.45554433,0.121247864,5.240153046,6.579717407,8.412287807
14.46555833,-0.092657318,5.271887054,6.19322113,8.133717875
14.47557133,-0.686322784,5.37891449,5.433101807,7.676089844
14.48558533,-0.9395961,5.481002197,5.692212982,7.957733003
14.49559833,-0.330512695,5.590873718,5.576952667,7.903765471
14.50561233,0.252375183,5.909111938,5.434598694,8.032195223
14.51562533,0.880618744,6.058950348,6.657405853,9.044745512
14.52563933,0.749042358,5.721402283,7.689509583,9.613743608
14.53565333,0.351169739,5.642815704,7.447163544,9.350130165
14.54566633,0.135468292,6.102659454,6.843768311,9.170494467
14.55568033,0.27617569,6.293961639,6.552174683,9.08962151
14.56569333,0.489332428,6.334078217,6.661597137,9.205263141
14.57570733,0.329614563,6.514902191,6.795418854,9.419676943
14.58572033,0.196391602,6.757846985,6.674620056,9.500400961
14.59573433,0.594264221,7.001390533,6.180647278,9.358045744
14.60574733,1.316811676,7.082821198,5.058730316,8.802903016
14.61576133,1.13149704,7.539521484,4.589306488,8.898674272
14.62577433,0.914448395,7.683522034,4.582570496,8.992923832
14.63578833,0.993334351,7.586224365,4.86173996,9.064989172
14.64580133,0.997974701,7.539521484,5.668412476,9.485316954
14.65581533,0.935554504,7.735314331,6.654112701,10.24634402
14.66582833,0.99453186,7.910150757,7.43009903,10.89797918
14.67584233,1.183888092,7.891439667,7.898624725,11.22785303
14.68585533,1.143472137,7.883955231,8.52641922,11.66893754
14.69586933,1.298998718,7.714806976,8.569379883,11.60344414
14.70588233,1.381327515,7.629783783,7.877668304,11.05347566
14.71589633,1.140178986,7.749235382,7.206763458,10.64368811
14.72590933,0.874182129,7.841593323,6.674769745,10.33476325
14.73592333,0.774190063,7.909552002,6.083349609,10.00837277
14.74593633,0.532293091,7.906558228,5.422623596,9.602179211
14.75595033,0.584384766,8.077951813,5.184169464,9.616154329
14.76596333,0.525257721,8.109087067,5.634133759,9.888207721
14.77597733,0.535436554,8.165519714,6.467301178,10.43016726
14.78599033,0.545765076,8.104297028,7.011419678,10.73021415
14.79600433,0.494421844,7.94951889,6.691834259,10.40288178
14.80601833,0.410147095,7.96014679,5.817502441,9.867902118
14.81603133,0.27033783,7.988288269,5.59072403,9.754077465
14.82604533,0.246986389,7.940537567,6.117778015,10.02698095
14.83605833,0.167501678,7.99397644,6.259383545,10.15438814
14.84607233,0.359552307,8.11567337,6.27285553,10.26363233
14.85608533,0.36509079,7.961643677,5.974675598,9.960813713
14.86609933,0.224832458,7.954757996,5.342689819,9.585043501
14.87611233,-0.100740509,7.971373444,4.83015564,9.321123684
14.88612633,-0.302371216,8.033194885,4.628375244,9.27607168
14.89613933,-0.215851135,8.216713257,4.384382629,9.315781207
14.90615333,0.02694397,8.122259674,4.333937531,9.206239336
14.91616633,0.22228775,7.948770447,4.361330566,9.069375269
14.92618033,0.282761993,8.044421539,4.30938858,9.130361558
14.93619333,0.335901489,8.038883057,4.643942871,9.289923358
14.94620733,0.49382309,8.10055481,5.194647675,9.635725916
14.95622033,0.425115967,8.315358124,5.127437439,9.778369956
14.96623433,0.550106049,8.323740692,4.797523499,9.623071625
14.97624733,0.664318542,8.336015167,4.457131348,9.476100878
14.98626133,0.7020401,8.346643066,4.192032623,9.36656011
14.99627433,0.703387299,8.356821899,4.247716827,9.400761894
15.00628833,0.87283493,8.54752533,4.577930145,9.735475052
15.01630133,0.858764191,8.603808289,4.82776062,9.90304325
15.02631533,0.900377655,8.520281982,4.693040771,9.768854419
15.03632833,1.028810577,8.553662567,4.368365936,9.659514246
15.04634233,0.992885284,8.642877045,3.943998413,9.551977192
15.05635533,0.844992828,8.584199066,3.759282532,9.40928752
15.06636933,0.721649323,8.510701904,3.852538605,9.36989212
15.07638333,0.636027374,8.539442139,3.813170471,9.373733083
15.08639633,0.551752625,8.650660858,3.530558167,9.359658392
15.09641033,0.638572083,8.704399109,3.619772644,9.448655573
15.10642333,0.708626404,8.655750275,3.848497009,9.499215411
15.11643733,0.559686127,8.635093231,3.900588684,9.491716165
15.12645033,0.449964294,8.674760742,3.826343079,9.491830337
15.13646433,0.504600677,8.814120941,3.807781677,9.614704941
15.14647733,0.372425537,8.827742615,3.989803162,9.694651604
15.15649133,0.198786621,8.796906738,4.021237793,9.674473509
15.16650433,0.167052612,8.772058411,3.920347595,9.60968473
15.17651833,0.225431213,8.659941559,3.635190582,9.394680282
15.18653133,0.037721558,8.789422302,3.451372833,9.442846062
15.19654533,-0.076341248,8.97338974,3.395089874,9.594487306
15.20655833,-0.215701447,8.987610168,3.671415253,9.710970786
15.21657233,-0.379909973,8.961115265,4.036206665,9.83549097
15.22658533,-0.524808655,8.950637054,4.328848114,9.956317281
15.23659933,-0.755778351,8.901539154,4.37614975,9.947828248
15.24661233,-0.878672791,8.873247986,4.194277954,9.853860322
15.25662633,-0.911903687,8.827742615,3.827540588,9.664919811
15.26663933,-0.86475174,8.841963043,3.347339172,9.493828815
15.27665333,-0.887654114,8.761430511,2.863395538,9.260109526
15.28666633,-0.851429443,8.506660309,2.646646271,8.949465805
15.29668033,-1.104104004,8.398135986,2.886746979,8.948801138
15.30669333,-1.418899384,8.479117584,3.624562683,9.329853435
15.31670733,-1.594334564,8.616382141,4.221521301,9.726519727
15.32672133,-1.273551636,8.552315369,4.630171509,9.808288339
15.33673433,-1.068478088,8.551866302,4.589456177,9.764177932
15.34674833,-0.944835205,8.539741516,4.366270294,9.637645719
15.35676175,-0.981958008,8.664581909,4.223018188,9.688813333
15.36677575,-1.096918945,8.910969543,3.964056702,9.81439529
15.37678875,-0.965043182,8.853189697,3.86361557,9.707615641
15.38680275,-0.957409058,8.784632263,4.02857254,9.711631831
15.39681575,-1.04722229,8.876840515,4.137096863,9.849393002
15.40682975,-1.024469604,8.856931915,4.204606476,9.857661819
15.41684275,-1.077160034,8.897048492,4.051923981,9.83543764
15.42685675,-0.968336334,8.849896545,3.777993622,9.671172624
15.43686975,-0.815803528,8.78972168,3.831881561,9.623308106
15.44688375,-0.653091888,8.880133667,3.764970703,9.667383687
15.45689675,-0.692609711,8.937763824,3.433260498,9.599510823
15.46691075,-0.768352203,8.738079071,3.196602631,9.336094437
15.47692375,-0.782722321,8.556207275,3.15109726,9.151543646
15.48693775,-0.783770142,8.702602844,3.283871155,9.334527394
15.49695075,-0.669557648,8.909322968,3.481160889,9.588682095
15.50696475,-0.646804962,8.852441254,3.556304626,9.561975497
15.51697775,-0.728235626,8.681197357,3.755091248,9.486528604
15.52699175,-0.740210724,8.68553833,3.814367981,9.515035002
15.53700475,-0.956211548,8.727900238,3.732488251,9.540547764
15.54701875,-1.154399414,8.725056152,3.700155487,9.547271521
15.55703175,-1.207987976,8.812025299,3.640429688,9.610606283
15.56704575,-0.980910187,8.898994446,3.573069763,9.639559869
15.57705975,-0.774190063,8.896898804,3.553909607,9.611683103
15.58707275,-0.782422943,8.906179504,3.590882721,9.634659192
15.59708675,-0.723894653,8.867859192,3.7384758,9.650862729
15.60709975,-0.621058502,8.782536621,3.797902222,9.588676887
15.61711375,-0.610580292,8.735085297,3.730093231,9.517779097
15.62712675,-0.628992004,8.657396851,3.665727081,9.42251061
15.63714075,-0.642613678,8.609047394,3.536545715,9.329298203
15.64715375,-0.6529422,8.630452881,3.405867462,9.301128083
15.65716775,-0.526754608,8.719966736,3.371888123,9.364022629
15.66718075,-0.402213593,8.709787903,3.497327271,9.394332287
15.67719475,-0.26914032,8.627608795,3.803440704,9.432615291
15.68720775,-0.312849426,8.656199341,3.979175262,9.532129749
15.69722175,-0.405656433,8.694070587,3.940555573,9.554025264
15.70723475,-0.354013824,8.717871094,3.722758484,9.486070468
15.71724875,-0.406554565,8.725056152,3.485950928,9.404453485
15.72726175,-0.413440247,8.759484558,3.222947845,9.342745602
15.73727575,-0.472417603,8.818611603,3.020568695,9.333537606
15.74728875,-0.555345154,8.769513702,3.063828735,9.305902715
15.75730275,-0.515827332,8.797206116,3.191812592,9.372543993
15.76731575,-0.605790253,8.87983429,3.248095551,9.474627357
15.77732975,-0.631536713,9.074579315,3.258424072,9.662512913
15.78734275,-0.559237061,9.252259827,3.187770996,9.801986631
15.79735675,-0.469124451,9.257049866,3.15109726,9.78991644
15.80736975,-0.463885345,9.298214264,3.316802673,9.88297314
15.81738375,-0.543968811,9.458231506,3.516936493,10.10558695
15.82739775,-0.605640564,9.573192444,3.616030426,10.25126773
15.83741075,-0.417631531,9.624535675,3.672463074,10.30985393
15.84742475,-0.326171722,9.733808441,3.79805191,10.45364114
15.85743775,-0.385747833,9.861193542,3.825145569,10.58412387
15.86745175,-0.478704529,9.917476501,3.830534363,10.64229729
15.87746475,-0.4445755,9.938432922,3.737427979,10.62725102
15.88747875,-0.498912506,9.939331055,3.584296417,10.57763661
15.89749175,-0.4153862,9.934690704,3.471281433,10.53187637
15.90750575,-0.232616272,9.896220703,3.528761902,10.50911295
15.91751875,-0.184416504,9.869276733,3.788621521,10.57309253
15.92753275,-0.293838959,9.874665527,4.150868225,10.71564593
15.93754575,-0.394130402,9.848769379,4.46266983,10.81984376
15.94755975,-0.5043013,9.768087158,4.791985016,10.89187619
15.95757275,-0.546513519,9.818382568,4.874912567,10.97561323
15.96758675,-0.598006439,9.865983582,4.627028046,10.91350687
15.97759975,-0.551602936,9.831704865,4.306544495,10.74769798
15.98761375,-0.377365265,9.848470001,4.147126007,10.69268068
15.99762675,-0.010328522,9.845476227,4.22167099,10.71242338
16.00764075,0.206420746,9.907597046,4.283791809,10.79601598
16.01765375,0.349373474,9.930200043,4.375251617,10.85696834
16.02766775,0.353864136,9.963430939,4.288731537,10.85303617
16.03768175,0.516725464,9.76314743,4.132007446,10.61411977
16.04769475,0.647852783,9.606872406,3.75359436,10.3344657
16.05770875,0.871637421,9.471254425,3.342249756,10.08142081
16.06772175,0.954415283,9.285341034,3.19315979,9.865330004
16.07773575,0.986897736,9.19223465,3.317850494,9.822386517
16.08774875,0.869541779,9.1278685,3.747157745,9.905315614
16.09776275,0.820743256,9.081614685,4.595443726,10.21114332
16.10777575,0.753832397,8.927884369,5.567372589,10.54850796
16.11778975,0.768651581,8.690777435,6.326294403,10.77694013
16.12780275,0.787362671,8.461753693,6.901697845,10.94781479
16.13781675,0.83661026,8.401279449,7.435787201,11.25043752
16.14782975,0.842897186,8.143216095,7.434140625,11.05843076
16.15784375,0.986897736,7.777975616,7.060667267,10.55101389
16.16785675,1.133442993,7.65582962,6.580914917,10.15897935
16.17787075,1.447639618,7.634573822,6.151607666,9.910835221
16.18788375,1.617686005,7.346423035,5.724246368,9.452715795
16.19789775,1.795965271,6.970105591,5.219196625,8.890887279
16.20791075,1.780697021,6.484964447,4.773722992,8.247064748
16.21792475,1.761237488,6.034850464,4.478237457,7.718548331
16.22793775,1.754501495,5.670657806,3.678151245,6.983081844
16.23795175,1.358275452,5.114713898,2.866089935,6.018278988
16.24796575,1.46500351,5.32622406,3.086880798,6.328011622
16.25797875,1.600022736,5.407654724,3.417243805,6.593963724
16.26799275,1.415306854,5.394332428,3.302432556,6.481356079
16.27800575,0.171393585,4.8651828,3.332519989,5.899582097
16.28801975,-0.003742218,4.767885132,4.111500092,6.295806194
16.29803275,0.146844635,5.246290283,4.395459595,6.84581552
16.30804675,0.409997406,6.170318756,4.609065399,7.712614037
16.31805975,0.679137726,7.009773102,3.889661407,8.04534728
16.32807375,0.705482941,6.418951721,3.036585388,7.135930086
16.33808675,0.825383606,5.878126373,2.940335541,6.624137744
16.34810075,0.865500183,6.056255951,3.199446716,6.903896436
16.35811321,0.502505035,6.53960083,3.691772919,7.52649172
16.36812721,-0.170495453,6.810986481,5.212610321,8.578456265
16.37814021,-1.029109955,6.670877838,6.848109283,9.615418825
16.38815421,-1.268611908,6.114035797,7.057823181,9.42357034
16.39816721,-1.101110229,5.617967377,6.778504028,8.872548565
16.40818121,-0.462687836,5.046904907,6.769971771,8.45682251
16.41819421,0.642314301,4.546645203,6.833589478,8.233012535
16.42820821,2.066452789,4.66040863,7.232809296,8.848907618
16.43822121,3.437302094,5.613776093,6.882238312,9.523378176
16.44823521,4.314328308,6.690936127,5.259462891,9.541698219
16.45824921,4.356091461,6.914122009,3.795357513,9.010291595
16.46826221,3.749253387,6.924450531,3.666625214,8.686141639
16.47827621,3.147953796,6.530320129,4.23454422,8.395597587
16.48828921,3.373983765,6.193670197,3.534001007,7.888883322
16.49830321,2.46776825,5.69011734,2.813100128,6.810348582
16.50831621,0.621956635,6.322701874,4.80440918,7.965283209
16.51833021,0.201181641,8.467741241,8.070167999,11.69917635
16.52834321,2.165995789,10.90557175,9.144933014,14.39627843
16.53835721,4.169729004,11.12756012,7.029532013,13.80664892
16.54837021,4.489913177,10.76396622,6.008505249,13.11961983
16.55838421,3.640729065,10.1643132,5.275030518,12.01641036
16.56839721,3.014730835,9.551487579,4.104015656,10.82416101
16.57841121,2.674937439,9.191635895,4.3409729,10.51120861
16.58842421,2.882256317,8.103249207,5.386698303,10.14822979
16.59843821,2.938838654,7.141349487,5.621260529,9.55166033
16.60845121,2.754122772,6.801855469,5.459447021,9.146364952
16.61846521,3.036735077,6.799161072,5.341192932,9.163988932
16.62847821,2.587968292,7.07548645,5.494623871,9.324750928
16.63849221,2.158211975,6.946454773,5.968238983,9.409090785
16.64850621,1.576671295,6.440357208,5.304818573,8.491477694
16.65851921,0.82613205,5.891149292,4.597090302,7.518069791
16.66853321,1.057550812,5.374124451,4.461921387,7.064585607
16.67854621,1.819616089,5.308261414,4.448599091,7.160913057
16.68856021,2.039359131,5.121898956,3.900738373,6.75341354
16.69857321,2.161804504,4.656217346,3.469934235,6.196305535
16.70858721,2.663561096,4.143832855,4.530029755,6.692314848
16.71860021,2.922223206,3.57456665,5.504353638,7.184345772
16.72861421,2.559078369,2.949466553,4.944966888,6.300867605
16.73862721,1.94939621,2.087558899,5.244793396,5.972093896
16.74864121,1.421593781,1.342857513,6.683601379,6.963815231
16.75865421,0.819845123,1.407073975,7.984246674,8.148631673
16.76866821,0.772992554,1.938169556,8.733438721,8.97925223
16.77868121,1.789977722,2.595003662,9.376052399,9.891836171
16.78869521,3.562741241,3.126248932,9.735305328,10.82786809
16.79870821,4.656217346,3.05035675,10.80483124,12.15439897
16.80872221,3.335064697,3.250789948,11.57453064,12.47637974
16.81873521,3.139122162,3.978875885,11.60776154,12.66592551
16.82874921,3.839216309,4.480782166,11.06918152,12.54367451
16.83876221,4.499044189,4.908442841,10.52880524,12.45752582
16.84877621,3.915258179,5.314248962,9.503138123,11.57065784
16.85879021,3.063978424,5.937403107,9.032217407,11.23484182
16.86880321,4.331093445,7.368277588,9.271569672,12.60999164
16.87881721,6.842570801,8.629554749,9.460626526,14.51872737
16.88883021,7.131769409,9.406588898,9.480385437,15.14013731
16.89884421,6.123166809,9.940378876,8.962312775,14.71826601
16.90885721,6.058800659,10.05189697,7.755073242,14.06736859
16.91887121,6.252348175,9.548493805,6.873855743,13.3234937
16.92888421,5.752687225,8.510701904,5.68188446,11.73921923
16.93889821,5.397475891,7.557484131,6.89181839,11.56483779
16.94891121,6.490203552,6.51969223,8.176297302,12.30776042
16.95892521,9.216184845,5.517825623,7.762707367,13.25307845
16.96893821,12.93550049,4.684059448,6.259233856,15.11441677
16.97895221,11.95638657,5.479804688,7.109914856,14.95106446
16.98896521,10.93595856,6.344855804,7.687713318,14.79707136
16.99897921,9.516460419,5.608686676,7.547305298,13.37842302
17.00899221,9.177265778,4.354295197,8.065078583,12.97025776
17.01900621,9.292975159,3.519181824,8.054300995,12.7912389
17.02902021,9.407187653,3.97124176,8.285869446,13.14996476
17.03903321,9.551337891,5.06531662,8.900042267,14.00343673
17.04904721,8.952583008,5.445376282,9.489965515,14.137196
17.05906021,8.537945251,5.376818848,9.231602783,13.67586122
17.06907421,8.418643341,6.029611359,9.731413422,14.21021379
17.07908721,7.17847229,6.768325195,10.8464447,14.6624027
17.08910121,5.186863861,7.348967743,12.17448303,15.13700501
17.09911421,2.957849121,8.051905975,10.84524719,13.82756117
17.10912821,0.369282074,7.113208008,9.927954712,12.21877171
17.11914121,2.305505676,8.150401154,10.1059346,13.18614081
17.12915521,4.19712204,8.747958527,10.19634659,14.07508776
17.13916821,5.365292816,8.441545715,11.7117952,15.40169496
17.14918221,5.697302399,6.989265747,12.30351471,15.25403437
17.15919521,5.010829926,5.819448395,11.84322189,14.11510896
17.16920921,2.453398132,4.97520401,10.83222427,12.17
17.17922221,-0.138911133,3.622167664,10.16266663,10.78977237
17.18923621,-0.430205383,1.992356873,9.177265778,9.400891965
17.19924921,1.585353241,0.476309509,7.901319122,8.072859439
17.20926321,3.853586426,-0.346080322,6.33482666,7.422932624
17.21927721,4.440665588,0.034428406,5.71002594,7.233608534
17.22929021,3.774550781,0.552800446,6.695726166,7.706203399
17.23930421,3.03164566,0.558488617,7.542066193,8.147732654
17.24931721,3.923041992,1.343905334,7.268285522,8.368053206
17.25933121,4.81488739,3.631298676,8.580456848,10.48778863
17.26934421,3.948339386,4.003125458,8.553512878,10.23606271
17.27935821,3.237168274,2.930306396,8.036038971,9.145702617
17.28937121,3.784130859,2.971171417,8.312364349,9.604317104
17.29938521,4.685855713,3.493285675,8.078400879,9.971000418
17.30939821,4.566404114,3.08433609,7.588170319,9.377926446
17.31941221,4.876708832,2.517764282,8.011939087,9.711467136
17.32942521,4.934788055,1.814975739,7.9507164,9.53205966
17.33943921,4.859794006,1.479972382,8.041278076,9.511575534
17.34945221,5.265151062,0.937350769,8.365204468,9.928599496
17.35946633,5.354814606,0.434845734,9.160350952,10.61956496
17.36947933,4.359384613,0.867895203,9.228159943,10.24287129
17.37949333,2.866539001,1.793270874,10.21146515,10.75671357
17.38950733,1.939217377,1.867965546,13.21556808,13.48707155
17.39952033,1.838626556,4.102069702,11.29446304,12.15616794
17.40953433,1.767524414,5.151387634,11.39295822,12.62776442
17.41954733,2.90650589,4.787045288,11.24880798,12.56579723
17.42956133,3.726800079,4.505780182,10.3527713,11.88995238
17.43957433,5.009782104,4.079167328,9.819879456,11.75446959
17.44958833,5.891149292,3.799698486,9.385183411,11.71430818
17.45960133,5.589077454,3.758983154,7.310946808,9.940708444
17.46961533,5.4093013,4.451293488,6.567592621,9.602490672
17.47962833,6.695127411,6.842121735,10.14230896,13.94653333
17.48964233,6.776109009,6.950646057,8.897946625,13.16816571
17.49965533,8.279283142,6.175857239,8.510851593,13.38365932
17.50966933,10.26355682,5.556295624,8.129295044,14.22316623
17.51968233,11.75295959,4.259392548,6.411766663,14.0493856
17.52969633,12.34707413,2.346221008,5.006039886,13.52831948
17.53970933,11.35134476,1.074016571,4.50712738,12.26053574
17.54972333,8.917406158,0.819845123,4.300556946,9.934136533
17.55973733,7.819289703,0.653990021,3.144510956,8.453220899
17.56975033,8.340954895,1.43102417,2.68302063,8.877947873
17.57976433,9.415420532,3.05155426,3.510799255,10.50180168
17.58977733,10.08123596,3.945644989,4.24157959,11.62714197
17.59979133,10.27298721,3.292702789,4.486769714,11.68363216
17.60980433,9.656868439,2.375410309,4.100273438,10.75685477
17.61981833,8.275241547,1.459315338,2.688708801,8.82260613
17.62983133,7.091353455,0.202678528,2.027234344,7.378214655
17.63984533,6.21312973,-1.150357819,2.606380005,6.835167949
17.64985833,6.06927887,-1.383273468,3.740272064,7.262177814
17.65987233,5.742957458,-0.35341507,3.40496933,6.685826704
17.66988533,5.671555939,0.075742493,2.008223877,6.017079593
17.67989933,5.284610596,-0.388741608,0.133522339,5.300571422
17.68991233,5.038073273,-1.149160309,0.558787994,5.197595188
17.69992633,5.357209625,-2.31792984,0.900527344,5.906220721
17.70993933,6.053112488,-3.190465393,1.889520721,7.098558218
17.71995333,6.873706055,-2.734812927,2.17752182,7.711591143
17.72996733,8.234526215,-2.636467438,1.572480011,8.788121296
17.73998033,8.42343338,-3.659739532,0.511037292,9.198319546
17.74999433,7.739355927,-4.544250183,-0.007783813,8.974848214
17.76000733,8.421936493,-5.221441956,1.383722534,10.00535649
17.77002133,9.295370178,-6.179000702,2.944975891,11.54369263
17.78003433,10.28301636,-6.94331131,3.95836853,13.0237736
17.79004833,10.17553986,-5.897136841,2.565664673,12.03746109
17.80006133,9.367220764,-4.287534027,2.021695862,10.49833449
17.81007533,8.500523071,-3.442541199,2.588866425,9.529544153
17.82008833,7.484286346,-2.812651062,2.650538177,8.423235764
17.83010233,5.520220642,-2.304008789,2.12138855,6.346777278
17.84011533,4.175117798,-2.61865448,3.069666595,5.806187468
17.85012933,4.742438049,-4.567152557,5.363047485,8.491871376
17.86014233,8.359366608,-6.325096893,5.507946167,11.8415933
17.87015633,11.53710846,-6.611601105,1.6217276,13.39582551
17.88017033,12.01371735,-6.087840271,0.336200867,13.47235075
17.89018333,10.46863037,-6.21312973,1.294508057,12.2421793
17.90019733,7.8618013,-6.226901093,2.686164093,10.38256685
17.91021033,6.888375549,-6.622229004,4.415667572,10.52624125
17.92022433,6.660249939,-6.287525024,4.091890869,10.03172324
17.93023733,6.302793274,-5.376369781,3.363655243,8.941181783
17.94025133,6.203399963,-5.284760284,4.010460205,9.082656738
17.95026433,6.865173798,-5.414091339,4.594096527,9.876675514
17.96027833,7.595804443,-5.040917358,4.644691315,10.23133669
17.97029133,7.827971649,-4.964576111,4.072281647,10.12460537
17.98030533,7.294930115,-5.992787933,3.171754303,9.959394457
17.99031833,6.029761047,-7.420968018,2.545756073,9.894930954
18.00033233,4.947810974,-7.820786591,2.014361115,9.471176644
18.01034533,4.756508789,-7.530540161,2.349963226,9.211717437
18.02035933,5.623505859,-7.139104156,2.920127563,9.545562911
18.03037233,6.841223602,-6.685547333,2.920127563,10.00130134
18.04038633,7.707023163,-6.552623749,2.541564789,10.4304667
18.05040033,8.817863159,-6.770271149,2.282603302,11.34907749
18.06041333,10.80019089,-8.105344849,2.29338089,13.69672714
18.07042733,10.16760635,-9.128467255,3.581452332,14.12571889
18.08044033,8.444838867,-7.998317413,5.374274139,12.81293126
18.09045433,8.546477509,-5.582191772,4.899910583,11.32308556
18.10046733,6.994953918,-5.302573242,4.17721344,9.720893757
18.11048133,5.06875946,-6.503675537,3.43071579,8.930841438
18.12049433,5.018763428,-7.329957275,3.199895782,9.442223945
18.13050833,5.714067535,-8.052953796,1.843566284,10.04486781
18.14052133,6.396049347,-9.986033936,0.138462067,11.85957389
18.15053533,6.806196442,-10.62460602,0.681233368,12.63608491
18.16054833,6.826105042,-9.853110352,1.95987442,12.14580592
18.17056233,7.994275818,-9.353748779,3.054847412,12.67805801
18.18057533,8.814570007,-9.430688782,4.180656281,13.56880327
18.19058933,9.336534576,-8.733588409,4.417463837,13.52628667
18.20060333,8.264164581,-8.060288544,4.084556122,12.24533651
18.21061633,6.404880981,-8.335566101,2.740052032,10.86333502
18.22063033,5.989943848,-8.88791748,1.822609863,10.87181729
18.23064333,5.703888702,-8.637937317,1.562600555,10.46852558
18.24065733,5.384303284,-7.67229538,1.922901306,9.568301191
18.25067033,4.938679962,-6.745422821,2.616409149,8.759959226
18.26068433,4.159550171,-6.193819885,3.034789124,8.054514723
18.27069733,3.24225769,-6.523434448,2.830014954,7.815140214
18.28071133,2.105671234,-7.214397583,2.058968353,7.792351026
18.29072433,1.538201294,-7.444469147,1.328936462,7.717010834
18.30073833,1.475032654,-7.366331635,0.637524261,7.539562339
18.31075133,1.260977783,-6.888225861,0.382304993,7.013121814
18.32076533,1.249302063,-6.295608215,0.63647644,6.449848115
18.33077833,1.240620117,-5.812113647,1.099014587,6.043809758
18.34079233,1.207838287,-5.377267914,1.840871887,5.810567343
18.35080533,1.410367126,-5.031936035,3.071313171,6.06155758
18.36081946,1.814376984,-5.393733673,4.229754181,7.090496965
18.37083346,2.284549255,-5.949078827,5.337001648,8.312297563
18.38084646,1.951791229,-6.092181244,4.234394531,7.671652909
18.39086046,1.841320953,-6.140979767,2.077230377,6.739212223
18.40087346,2.120640106,-6.473588104,1.039139099,6.890882924
18.41088746,1.902094574,-6.623725891,1.155896301,6.987689511
18.42090046,2.275717621,-6.432723083,1.605112152,7.009650632
18.43091446,5.685177612,-8.600664825,3.486998749,10.88355825
18.44092746,6.930887146,-10.323582,5.22323822,13.4868736
18.45094146,6.726562042,-10.84539688,5.862858124,14.04430047
18.46095446,5.653742981,-10.08587631,5.438939667,12.77778445
18.47096846,4.80201416,-8.042176208,4.232747955,10.27872042
18.48098146,5.663472748,-6.77715683,1.829196167,9.019464334
18.49099546,6.471342773,-7.508086853,0.319884796,9.917256262
18.50100946,6.31851059,-8.93477005,0.173339539,10.94457576
18.51102246,5.495671692,-11.70011948,0.900078278,12.95782945
18.52103646,3.692371674,-15.11945892,2.569107513,15.77440839
18.53104946,1.242416382,-18.05231003,4.011957092,18.5344354
18.54106346,-1.116528168,-19.21359512,4.511468353,19.76770648
18.55107646,-1.314865723,-16.945811,2.941682739,17.24943129
18.56109046,0.619112549,-11.59997772,1.005608826,11.65993279
18.57110346,-0.318986664,-7.819289703,0.588426361,7.847884399
18.58111746,-1.691183167,-5.859564972,0.699794769,6.138755157
18.59113046,-2.006577301,-5.223687286,0.805774384,5.653541694
18.60114446,-2.165995789,-5.566923523,0.880469055,6.037996441
18.61115746,-2.336790619,-6.13708786,1.01683548,6.645178116
18.62117146,-2.111808472,-6.246660004,1.281634827,6.717371811
18.63118446,-2.00433197,-6.210285645,1.650168457,6.731125491
18.64119846,-2.157762909,-6.311774597,1.952389984,6.950270929
18.65121246,-2.317630463,-6.537505188,1.965263214,7.209205542
18.66122546,-2.007026367,-7.572602692,1.667083282,8.009471458
18.67123946,-1.685644684,-8.49363739,1.664538574,8.81782075
18.68125246,-1.424138489,-8.346343689,1.801354065,8.65647156
18.69126646,-1.269659729,-8.306376801,2.36478241,8.729268424
18.70127946,-1.118474121,-8.254883881,3.757486267,9.138533542
18.71129346,-0.552201691,-8.386909332,5.513035583,10.05180263
18.72130646,0.420325928,-8.917106781,7.173382874,11.45202554
18.73132046,1.583407288,-10.07599686,8.362061005,13.18927426
18.74133346,2.693648529,-11.39206009,8.414452057,14.41658
18.75134746,3.562441864,-12.63612305,7.663613434,15.20176202
18.76136046,4.209246826,-13.62182327,7.071744232,15.91481683
18.77137446,4.35624115,-14.02239029,7.072342987,16.29792323
18.78138846,3.5009198,-13.19565948,7.129673767,15.40175694
18.79140146,2.848576355,-12.28959366,6.655160522,14.26322758
18.80141546,2.846181335,-12.04320602,5.702092438,13.62546945
18.81142846,2.549947357,-11.82750458,5.092559967,13.12730982
18.82144246,1.904190216,-11.44594803,5.685776367,12.92144417
18.83145546,1.430425415,-10.68807404,6.322851563,12.50037981
18.84146946,1.087787933,-9.304052124,5.384602661,10.80474962
18.85148246,0.617915039,-7.494614868,3.409160614,8.256721329
18.86149646,-0.116457825,-6.195466461,1.45796814,6.365770825
18.87150946,-1.006057892,-6.3887146,-0.212707672,6.470940524
18.88152346,-1.977088623,-7.842491455,-1.526076508,8.230580852
18.89153646,-2.834206238,-8.997190247,-2.421065369,9.738773786
18.90155046,-3.95133316,-9.983339539,-2.801723785,11.09638492
18.91156346,-5.037624207,-11.09043732,-2.871927795,12.51492816
18.92157746,-6.108647003,-12.52954468,-2.354753265,14.13682853
18.93159146,-7.516319733,-14.52639221,-0.166004791,16.35661
18.94160446,-8.517737274,-17.71521103,9.310788116,21.75020288
18.95161846,-5.21859787,-17.4355925,14.89058487,23.51516888
18.96163146,-1.435215454,-12.91753784,7.533384247,15.02246669
18.97164546,0.37796402,-9.75386673,1.488055573,9.873959812
18.98165846,0.685574341,-7.815397797,-2.882256317,8.358101242
18.99167246,-0.267194366,-7.165748749,-5.919590149,9.29843511
19.00168546,-1.720821533,-7.200326843,-6.652166748,9.95275117
19.01169946,-2.525847473,-6.820716248,-5.825735321,9.31886622
19.02171246,-2.853067017,-6.178851013,-4.985083466,8.43618684
19.03172646,-3.303779755,-5.779182129,-4.422253876,7.99188564
19.04173946,-3.83083374,-5.97213089,-3.824097748,8.060109062
19.05175346,-4.068838806,-6.549480286,-3.188968506,8.34389965
19.06176746,-4.211342468,-7.552544403,-2.742297363,9.071743337
19.07178046,-4.329147491,-8.861871643,-2.249073029,10.11595851
19.08179446,-4.441114655,-10.10638367,-1.536704407,11.14557987
19.09180746,-4.384083252,-10.84854034,-1.404229889,11.78485788
19.10182146,-3.809278564,-10.91066116,-1.340462494,11.6340006
19.11183446,-2.366129608,-10.43031006,-1.111289063,10.75290196
19.12184846,-0.678389282,-10.15922379,0.723295898,10.20750689
19.13186146,1.335522766,-10.43255539,4.911137238,11.60780349
19.14187546,3.972738647,-10.40905426,7.322323151,13.33219709
19.15188846,5.426665192,-11.18878281,3.221600647,12.84586574
19.16190246,4.162244568,-12.23840012,0.474213867,12.93551684
19.17191546,0.461490326,-12.84059784,-0.935853882,12.88292469
19.18192946,-3.385958862,-12.51891678,-2.36238739,13.18214205
19.19194246,-5.075645142,-11.11633347,-2.85740799,12.54989338
19.20195646,-4.8850914,-9.264384613,-3.587739258,11.07089939
19.21197046,-4.824168091,-7.913593597,-3.97363678,10.08401461
19.22198346,-5.60943512,-7.220534821,-3.345842285,9.736351784
19.23199746,-6.334377594,-6.738686829,-1.374292145,9.350022384
19.24201046,-6.927294617,-6.302493896,0.087418213,9.365707766
19.25202446,-7.539671173,-6.146069183,0.976868591,9.776250818
19.26203746,-7.906707916,-6.279292145,1.609303436,10.22425535
19.27205146,-7.571554871,-6.748865662,1.547032928,10.26006539
19.28206446,-6.324797516,-7.441625061,1.127156067,9.831140726
19.29207846,-4.76219696,-8.316106567,1.451830902,9.692469309
19.30209146,-3.549718323,-9.263935547,1.844314728,10.09071349
19.31210546,-3.291056213,-9.932445374,1.374741211,10.55340871
19.32211846,-3.313060455,-10.08857071,0.307460632,10.62309562
19.33213246,-2.998863831,-9.80535965,-0.623752899,10.2726496
19.34214646,-2.614313507,-9.335786133,-1.215322723,9.770800743
19.35215946,-2.278262329,-8.954528961,-1.520987091,9.364158792
19.36217358,-2.065404968,-8.758736115,-1.568588104,9.134649673
19.37218658,-2.093097382,-8.719667358,-1.547631683,9.099935127
19.38220058,-2.298769684,-8.781638489,-1.498683472,9.200411336
