Time (s),Acceleration x (m/s^2),Acceleration y (m/s^2),Acceleration z (m/s^2),Absolute acceleration (m/s^2)
0.000896792,-4.078269196,7.050338745,6.80993866,10.61672363
0.010928792,-3.981121216,7.22532486,7.019053802,10.83151706
0.020961792,-3.723955994,7.117399292,8.171207886,11.45835325
0.030993792,-3.646716614,6.440057831,10.03004242,12.46493634
0.041025792,-4.007167053,5.378764801,11.57228531,13.37558544
0.051058792,-4.047133942,4.271517334,12.36877899,13.69714741
0.061090792,-3.632047119,3.364703064,12.07958038,13.05485562
0.071122792,-3.241808624,2.392025757,11.47858017,12.16506938
0.081155792,-2.924468536,1.977388,12.32716553,12.82269821
0.091187792,-1.925745392,1.79491745,10.55874298,10.88197029
0.101219792,-1.74102951,2.370919647,7.873327332,8.404863295
0.111252792,-1.50946106,3.553759918,8.307274933,9.16070407
0.121284792,-0.996777191,4.160448303,8.723259888,9.715871444
0.131316792,-0.344733124,4.024381256,9.605974274,10.42061549
0.141349792,0.048798523,2.969075775,10.27987289,10.70016724
0.151381792,0.116158447,1.829944611,10.59766205,10.75512115
0.161413792,-0.228424988,0.696651306,11.05660767,11.08088778
0.171446792,-1.608105927,-0.285306702,12.8636499,12.96691534
0.181478792,-3.628753967,-0.68916687,13.95024033,14.43093938
0.191510792,-5.283413086,-0.83541275,13.06183777,14.1146723
0.201543792,-6.091133423,-0.831670532,11.63889679,13.16273151
0.211575792,-5.613177338,-0.831520844,10.01357666,11.50960053
0.221607792,-4.470603333,-0.343086548,8.256231079,9.395177176
0.231640792,-3.490591278,0.670006714,6.293213196,7.22756313
0.241672792,-3.002606049,1.725761261,4.169579315,5.420266292
0.251704792,-3.190764771,2.424657898,2.725532227,4.846490654
0.261737792,-3.809577942,2.960543518,2.007176056,5.225558127
0.271769792,-4.381837921,2.959944763,2.447709961,5.826925486
0.281801792,-4.633614349,2.358645172,3.391647034,6.207806262
0.291834792,-4.600383453,2.083666992,4.281546478,6.620939231
0.301866792,-4.686304779,2.091899872,5.652545471,7.634708106
0.311898792,-4.805906067,2.196083221,6.431076508,8.323356275
0.321931792,-4.453838196,2.521207123,6.632707214,8.37770643
0.331963792,-3.856879578,3.120860138,6.59932663,8.256294571
0.341995792,-3.867507477,3.596421204,6.837331696,8.639500233
0.352028792,-3.638184357,3.583847351,5.764812012,7.701519641
0.362060792,-4.082610168,3.822600861,5.173691254,7.618862403
0.372092792,-4.383334808,3.634741516,5.673950958,8.038575086
0.382125792,-5.237758026,3.440744934,6.157295837,8.785506637
0.392157792,-6.165528717,3.063379669,6.537804565,9.494257627
0.402189792,-6.548282776,2.658172302,6.10430603,9.338545894
0.412222792,-6.420598297,3.038830719,5.334756317,8.883591593
0.422254792,-5.716013489,3.881727905,5.375022583,8.75394137
0.432286792,-5.212610321,4.294868774,4.867128754,8.325031318
0.442319792,-4.838687897,4.396507416,5.005291443,8.233779232
0.452351792,-4.671635284,4.732558594,6.30563736,9.16418843
0.462383792,-4.837340698,4.435276794,7.542215881,9.997828048
0.472417292,-4.852459259,4.13739624,8.104746094,10.31267753
0.482449292,-5.321284332,4.219425659,8.554560699,10.92245982
0.492481292,-6.127507782,4.275708618,9.154962158,11.81699488
0.502514292,-6.739584961,4.325554962,9.684411163,12.56663244
0.512546292,-7.271428986,4.380041656,10.25502457,13.31254947
0.522578292,-7.62544281,4.582271118,10.86051544,14.03906629
0.532611292,-8.089627533,4.550686798,11.51375702,14.78909817
0.542643292,-8.564140778,4.074077911,11.85534668,15.18195847
0.552675292,-9.011260986,3.263812866,12.25441681,15.55718581
0.562708292,-9.381441193,2.470312958,12.60573624,15.90655434
0.572740292,-9.814191284,2.112407227,12.53388565,16.05860842
0.582773292,-9.81239502,1.911225586,12.42072098,15.9439703
0.592805292,-9.737251282,1.282832336,12.27716949,15.72223305
0.602837292,-10.15787659,0.789308624,12.05862396,15.78657267
0.612870292,-10.58284286,0.661175079,11.39370667,15.564391
0.622902292,-10.53164932,0.616268463,10.4868924,14.87515836
0.632934292,-10.23526566,0.829874268,9.326655121,13.87212493
0.642967292,-9.016350403,1.22744751,8.162376251,12.22397595
0.652999292,-8.093669128,2.038460999,6.692582703,10.69829269
0.663031292,-7.670050049,1.80315033,5.894143066,9.839814091
0.673064292,-6.680906982,1.09991272,6.268215179,9.226854699
0.683096292,-5.447471924,0.75937088,7.211703186,9.069744061
0.693128292,-4.233945465,0.985849915,9.053323517,10.04295081
0.703161292,-3.892655182,1.345701599,11.01050354,11.75563122
0.713193292,-3.632945251,1.407073975,12.10697342,12.71837072
0.723225292,-3.974085846,0.809516602,13.10674438,13.71989154
0.733258292,-4.767286377,-0.385298767,14.00068542,14.79508928
0.743290292,-4.089346161,-1.694027252,13.54802673,14.25277197
0.753322292,-2.501897278,-3.269351349,13.31810486,13.93987322
0.763355292,-1.388662262,-4.063899078,12.52699997,13.24271071
0.773387292,-0.968635712,-4.415667572,11.40538239,12.2686235
0.783419292,-0.340990906,-3.945195923,10.3966301,11.12523092
0.793452292,-0.434246979,-2.508184204,8.545878754,8.91692784
0.803484292,-1.066382446,-0.925974426,6.156397705,6.316314817
0.813516292,-1.931433563,-0.430804138,2.79528717,3.424858855
0.823549292,-2.097438354,-0.71491333,0.462388458,2.263658942
0.833581292,-1.900148621,-1.43566452,0.900826721,2.54621016
0.843613292,-1.329535217,-1.332079926,0.553848267,1.961848293
0.853646292,-1.960173798,6.501280518,-11.93138855,13.72832701
0.863678292,-10.01297791,12.53298752,-6.332581329,17.24636451
0.873711292,-8.976982269,4.698279877,7.451953583,12.57742647
0.883743292,-5.833219757,2.16928894,2.977757721,6.899225195
0.893775292,-8.916807404,3.453767853,0.627495117,9.582886662
0.903808292,-9.389524384,3.523522797,-0.717907104,10.05453985
0.913840292,-6.428232422,2.686014404,-1.675465851,7.165474951
0.923872292,-3.301235046,1.767823792,-2.603685608,4.560979339
0.933905292,-0.000149689,0.321980438,-0.804427185,0.866472458
0.943937292,3.463198242,-1.030606842,4.285588074,5.605547044
0.953969292,5.609135742,-1.157692566,12.86544617,14.08269722
0.964002292,5.055736542,-0.84244812,27.4659343,27.94007404
0.974034292,4.359833679,-1.095571747,15.25851974,15.90694351
0.984066292,5.136867828,1.075064392,15.32213745,16.19602021
0.994099292,4.088747406,1.711241455,13.62721207,14.32993759
1.004131292,3.015928345,1.923050995,12.4668251,12.96979865
1.014163292,2.183808746,1.889221344,13.47887054,13.78470635
1.024196292,-0.156424713,4.032763824,9.461225281,10.28603114
1.034228292,-5.191803589,6.927893372,2.587369537,9.035762956
1.044260292,-2.165995789,5.302423553,2.130220184,6.111061391
1.054293292,0.858015747,2.096390533,4.512516174,5.049143147
1.064325292,3.009791107,0.652493134,5.481151886,6.287099156
1.074357292,2.28634552,1.388213196,6.563700714,7.087783771
1.084390292,0.085921326,2.972219238,7.822433167,8.368508249
1.094422292,-0.221239929,3.661984863,8.204887848,8.98772857
1.104454292,1.31756012,2.998265076,7.623496857,8.297184008
1.114487292,4.052073669,2.390828247,6.07391922,7.682958767
1.124519292,5.962850189,2.154320068,3.982767792,7.487263627
1.134551292,2.123035126,1.305285645,3.221600647,4.073052846
1.144584292,-0.897383881,1.872905273,6.517895966,6.840763101
1.154616292,3.086880798,2.462828522,5.3694841,6.665261952
1.164649292,3.549718323,1.685195618,6.942263489,7.977180378
1.174681292,3.774550781,1.957778778,8.188721466,9.226878703
1.184713292,6.542594604,2.599644012,8.096662903,10.72938224
1.194746292,9.618697815,2.751578064,8.316256256,13.00963672
1.204778292,10.47027695,1.788031769,8.632398834,13.68729581
1.214810292,10.36100418,0.584534454,7.160359955,12.60804675
1.224843292,8.721613312,0.657283173,3.675756226,9.487346508
1.234875292,7.855664063,2.176773376,1.72591095,8.33238074
1.244907292,8.367000732,2.413580933,3.328777771,9.322705381
1.254940292,11.93438232,-0.787063293,-4.261188812,12.69671927
1.264972292,8.878187714,-1.958078156,-11.70925049,14.82439996
1.275004292,4.016298065,0.011226654,1.15020813,4.177769133
1.285037292,5.233267365,0.614023132,10.28586044,11.55694755
1.295069292,7.355554047,-1.531315613,6.914421387,10.21069664
1.305101292,10.45036835,-2.933150482,5.406307526,12.1260765
1.315134292,11.28263763,-2.777474213,6.671177216,13.39839096
1.325166292,10.13317795,-3.151995392,6.601272583,12.49772659
1.335198292,9.576485596,-3.412453766,6.659202118,12.15314321
1.345231292,9.645941162,-3.004851379,6.721173248,12.13455737
1.355263292,9.284442902,-2.679877167,6.843618622,11.84135708
1.365295292,8.199499054,-2.824326782,17.67329819,19.68639315
1.375328292,6.821464691,-1.879940643,7.256310425,10.13511709
1.385360292,8.385861511,-0.974174194,2.9767099,8.951675289
1.395393292,7.481292572,-0.753832397,2.87836441,8.051272167
1.405425292,7.632178802,-0.719853058,1.965562592,7.914024134
1.415457292,8.030201111,-1.204844513,2.574346619,8.518394256
1.425490292,8.48660202,-1.692530365,4.444108429,9.728163887
1.435522292,8.55800354,-1.627116394,6.16283432,10.67086966
1.445554292,7.894732819,-2.319277039,6.205046539,10.30574863
1.455587292,7.697592773,-3.884272614,4.00058075,9.505006816
1.465619292,8.54048996,-3.200045471,4.797673187,10.30523788
1.475651167,9.68007019,-1.720522156,6.989415436,12.06299646
1.485684167,11.31721573,-1.191821594,8.585396576,14.25513398
1.495716167,13.37468719,-0.874780884,10.25307861,16.87522208
1.505748167,13.70280487,-0.39787262,12.35680389,18.45577867
1.515781167,12.60408966,-0.042212219,12.94029053,18.06421814
1.525813167,10.82204544,0.962498474,12.22148529,16.35260755
1.535845167,7.239096222,1.890269165,10.84060684,13.17180277
1.545878167,6.072572021,1.029559021,11.51240982,13.05648125
1.555910167,6.469097443,0.362546082,12.61860947,14.18484988
1.565942167,8.097411346,-0.25162674,10.13886612,12.97798107
1.575975167,9.578880615,0.397423553,8.618627472,12.89161118
1.586007167,10.01417542,0.922980652,9.110055542,13.56940362
1.596039167,11.51705017,1.377285919,10.7867189,15.83959172
1.606072167,12.9871431,2.23949295,11.51974457,17.50387755
1.616104167,11.94620773,2.837200012,10.37582336,16.07542515
1.626137167,9.770033112,3.547173615,8.991801453,13.74367058
1.636169167,8.402926025,4.558021545,8.16132843,12.56948718
1.646201167,8.035889282,4.974754944,7.49671051,12.06334828
1.656234167,9.1278685,4.522245941,7.789351959,12.82352119
1.666266167,10.83132614,3.603456573,9.265282745,14.7019723
1.676298167,11.77661041,3.515589294,11.25554398,16.66538902
1.686331167,11.25674149,3.96196106,12.80197815,17.5014859
1.696363167,9.464219055,3.955075378,13.56149872,17.00377344
1.706395167,7.470215607,3.590733032,13.19116882,15.57897365
1.716428167,6.667734375,2.937042389,11.65087189,13.74145973
1.726460167,7.165000305,2.045795746,9.975705414,12.45139382
1.736492167,7.780370636,1.907782745,8.854387207,11.94043446
1.746525167,8.34978653,2.085912323,7.584577789,11.47152063
1.756557167,9.039103088,2.347867584,6.603517914,11.43784576
1.766589167,9.633816376,2.40564743,6.466702423,11.8497172
1.776622167,9.616153107,2.605032806,6.679410095,11.99462862
1.786654167,10.00040405,2.816842346,6.924749908,12.48578565
1.796687167,10.7787854,2.72164032,6.805298309,13.03463179
1.806719167,10.05653732,1.85344574,6.000272369,11.85632627
1.816751167,9.36302948,1.121916962,5.58368866,10.95913308
1.826784167,9.323811035,0.960253143,3.977378998,10.18209615
1.836816167,9.878407745,1.773511963,3.137325897,10.51527927
1.846848167,10.83132614,3.253933411,4.933889923,12.33892128
1.856881167,12.70468048,4.353397064,6.160588989,14.77544682
1.866913167,13.33756439,4.653522949,4.937183075,14.96401271
1.876945167,11.94755493,4.263434143,3.301235046,13.1079782
1.886978167,10.73597443,4.629423065,2.537523193,11.96376733
1.897010167,11.52797745,6.040089569,2.60338623,13.2723233
1.907042167,11.11603409,5.990093536,2.586770782,12.88948476
1.917075167,10.51039352,5.622607727,2.574047241,12.19458113
1.927107167,9.683363342,4.912185059,2.263293457,11.09141943
1.937139167,9.20855072,4.40653656,1.477427673,10.31492915
1.947172167,8.821755066,4.050277405,1.231189728,9.784883119
1.957204167,8.537346497,3.739673309,1.027912445,9.376995556
1.967236167,8.447084198,3.475323029,1.078956299,9.197567521
1.977269167,7.550299072,2.8877948,0.91145462,8.134932354
1.987301167,6.980583801,2.777174835,0.544567566,7.532450073
1.997334167,6.997199249,2.77193573,0.344284058,7.534119493
2.007366167,6.683751068,2.5122258,0.205073547,7.143238899
2.017398167,5.918841705,1.921853485,-0.044008484,6.223194091
2.027431167,5.487887878,1.414708099,-0.18950592,5.670469545
2.037463167,5.476212158,1.136736145,-0.195792847,5.596374139
2.047495167,5.229225769,0.795595551,-0.343086548,5.30051722
2.057528167,4.913831635,0.44233017,-0.76640625,4.992872505
2.067560167,4.693489838,0.321381683,-1.197509766,4.85449922
2.077592167,4.532424774,0.086819458,-1.894161072,4.913070132
2.087625167,4.754413147,-0.344583435,-2.674039307,5.465680958
2.097657167,5.048850861,-0.815354462,-2.875819702,5.867370524
2.107689167,5.094954987,-1.139430542,-2.824326782,5.935797339
2.117722167,5.39523056,-1.294807434,-2.771786041,6.202244509
2.127754167,5.929918671,-1.381327515,-2.093097382,6.438404911
2.137786167,6.003116455,-1.560953979,-1.904190216,6.48844549
2.147819167,6.44604538,-2.431842957,-1.92364975,7.153026601
2.157851167,7.785460052,-3.538641357,-1.142124939,8.627851428
2.167883167,8.542884979,-4.217928772,-0.794847107,9.560522413
2.177916167,8.427624664,-4.989873505,-1.077908478,9.8532016
2.187948167,7.929161224,-5.574857025,-1.692979431,9.839553238
2.197981167,8.229885864,-5.987099762,-1.64043869,10.30860922
2.208013167,8.806486816,-5.89489151,-1.106648712,10.65498134
2.218045167,9.621691589,-5.549409943,0.013621674,11.10734376
2.228078167,10.43944107,-5.085075531,1.699116669,11.73571133
2.238110167,10.57984909,-3.634442139,3.407514038,11.69416642
2.248142167,10.96335159,-2.478994904,4.348607025,12.05200717
2.258175167,12.35425919,-1.793570251,4.391118622,13.23353834
2.268207167,12.31084946,-1.445394287,3.417692871,12.8579471
2.278239167,11.84876038,-1.348395996,1.862277374,12.06977097
2.288272167,11.67347488,-1.11278595,0.171243896,11.72764396
2.298304167,11.75640244,-1.31980545,-1.314117279,11.90301596
2.308336167,12.04515198,-1.300345917,-2.45369751,12.36111715
2.318369167,12.42341537,-0.95710968,-3.228037262,12.8715785
2.328401167,12.66351608,-0.696501617,-3.704795837,13.21269338
2.338433167,12.74599457,-0.388591919,-4.215533752,13.43064057
2.348466167,12.92277695,-0.306861877,-4.463268585,13.67527311
2.358498167,13.1371312,-0.506546631,-4.083807678,13.76656423
2.368530167,13.41555222,-0.884810028,-3.241209869,13.82987243
2.378563167,13.86895935,-0.951870575,-2.310445404,14.09227622
2.388595167,13.88796982,-1.153501282,-1.623673553,14.03006011
2.398628167,14.09214523,-1.731449432,-0.777483215,14.21938657
2.408660167,13.57182724,-1.778751068,-0.04685257,13.68797447
2.418692167,12.93639862,-1.791923676,0.546663208,13.0713519
2.428725167,12.8676915,-1.949545898,0.672401733,13.03189694
2.438757167,12.59391083,-2.179018707,0.52765274,12.79191658
2.448789167,12.0966449,-1.910327454,0.459394684,12.25517084
2.458822167,11.98033676,-1.239572296,0.725241852,12.06610891
2.468854167,12.3208786,-0.449515228,1.109043732,12.37885663
2.478886667,12.60423935,0.187559967,1.335373077,12.67616857
2.488919667,12.66216888,0.558039551,1.369202728,12.74820164
2.498951667,12.82053955,1.111139374,1.455273743,12.95062496
2.508983667,12.66396515,1.607507172,1.40647522,12.84282933
2.519016667,12.3939267,1.749861145,1.392254791,12.59403853
2.529048667,12.04649918,1.775607605,1.354383545,12.25174598
2.539080667,11.46450943,1.603465576,1.393302612,11.6596471
2.549113667,11.06693619,1.713636475,1.439556427,11.2909676
2.559145667,11.26227997,1.992955627,1.599124603,11.54850734
2.569177667,11.77661041,2.287692719,2.318079529,12.21865719
2.579210667,11.96746353,1.979932709,2.66311203,12.4190371
2.589242667,11.67676804,1.580563202,2.579585724,12.06231132
2.599275667,11.26377686,1.441652069,2.480042725,11.62332318
2.609307667,10.98535583,1.496887207,2.57180191,11.38125121
2.619339667,10.86545517,1.699565735,2.711162109,11.32682832
2.629372667,11.07007965,2.001487885,2.997217255,11.64198989
2.639404667,11.25419678,2.26763443,2.979853363,11.86080255
2.649436667,11.31811386,2.287992096,2.973716125,11.92382476
2.659469667,11.51390671,2.400707703,3.018173676,12.14260341
2.669501667,12.11909821,2.580184479,2.85261795,12.71484654
2.679533667,13.2989447,2.755769348,2.366279297,13.78606081
2.689566667,14.76170288,2.895578613,2.207160187,15.20407194
2.699598667,15.70803497,3.106789398,2.453547821,16.19920986
2.709630667,16.32789597,3.295846252,2.723436584,16.87838547
2.719663667,16.72382263,3.679049377,3.416046295,17.46112883
2.729695667,17.01526657,3.941154327,4.311933289,17.99012959
2.739727667,17.58138931,4.266427917,5.54851181,18.9233623
2.749760667,17.98090851,4.598736877,7.193890228,19.90511262
2.759792667,17.67704041,4.169729004,7.640411682,19.70381405
2.769824667,17.05059311,3.355871429,7.45105545,18.90774513
2.779857667,16.07806549,2.285597076,6.788383484,17.60142876
2.789889667,15.27603333,1.285377045,5.854774933,16.40999018
2.799921667,14.53552322,0.573008423,4.767585754,15.30815626
2.809954667,13.9200032,0.053588562,3.61438385,14.38169432
2.819986667,13.53215973,0.201780396,2.967728577,13.85523277
2.830018667,13.28277832,0.715661774,2.400108948,13.51683745
2.840051667,13.10629532,1.241368561,1.179846497,13.21771579
2.850083667,13.35911957,1.758243713,-0.083675995,13.47458713
2.860115667,13.91985352,2.087259521,-0.82957489,14.0998996
2.870148667,14.51920715,2.175875244,-1.218615875,14.73183064
2.880180667,15.04536301,1.505718842,-2.217788086,15.28230091
2.890213667,15.09416153,0.405656433,-3.811074829,15.57313587
2.900245667,14.54195984,-0.500858459,-4.91083786,15.35694578
2.910277667,15.02455627,-0.715661774,-4.128714294,15.5979404
2.920310667,16.10366226,-0.778381348,-3.197500763,16.43647854
2.930342667,16.21787476,-1.471589813,-2.837349701,16.52983943
2.940374667,15.4939801,-2.326611786,-3.376079407,16.02730339
2.950407667,14.53043381,-2.927462311,-4.496499481,15.48941735
2.960439667,13.29699875,-3.327280884,-5.704337769,14.84656335
2.970471667,12.67339554,-3.319646759,-5.583389282,14.24111109
2.980504667,12.18930222,-3.014281769,-4.825066223,13.45162619
2.990536667,11.01155136,-2.870281219,-4.733756104,12.32482148
3.000568667,9.985884247,-2.237397308,-5.248685303,11.50097945
3.010601667,9.642797699,-1.582509155,-5.44552597,11.18667224
3.020633667,9.391769714,-0.927171936,-5.141508179,10.74709693
3.030665667,9.665999451,-0.352966003,-4.256997528,10.56778872
3.040698667,10.11506561,-0.061072998,-3.247047729,10.62363409
3.050730667,10.11731094,0.124241638,-2.574047241,10.44036091
3.060762667,9.753267975,0.085023193,-2.47121109,10.06182634
3.070795667,9.591454468,0.180075531,-1.66034729,9.73576803
3.080827667,9.15825531,0.239052887,-1.062340851,9.222762856
3.090859667,8.652457123,0.205522614,-0.799786835,8.691772707
3.100892667,8.363857269,0.170345764,-0.589025116,8.386302921
3.110924667,8.158634033,0.025896149,-0.465232544,8.171928855
3.120956667,7.99397644,-0.254620514,-0.235460358,8.001495642
3.130989667,7.916886749,-0.370479584,0.206420746,7.928238168
3.141021667,8.032296753,-0.296533356,0.559237061,8.057199839
3.151053667,7.916737061,-0.362546082,0.693208466,7.955294044
3.161086667,7.804320831,-0.452359314,0.546962585,7.836531162
3.171118667,7.850874023,-0.654439087,0.261057129,7.882427562
3.181150667,7.996970215,-0.980910187,-0.129780121,8.05795013
3.191183667,8.206384735,-1.46141098,-0.603095856,8.357284073
3.201215667,8.396339722,-2.104024658,-0.955163727,8.70848886
3.211247667,8.784482574,-2.596799927,-1.06473587,9.221939407
3.221280667,9.548643494,-2.934048615,-1.019978943,10.04119469
3.231312667,9.968520355,-3.36634964,-0.985849915,10.56766805
3.241344667,10.02659958,-3.729793854,-1.074016571,10.75163117
3.251377667,10.10817993,-4.108955383,-1.303040314,10.98893671
3.261409667,10.07435028,-4.569547577,-1.335672455,11.14259034
3.271441667,9.618248749,-4.824467468,-1.066382446,10.81311088
3.281474667,9.197174377,-4.699776764,-0.518222351,10.34139606
3.291506667,9.063053284,-4.281845856,0.068557434,10.02386347
3.301538667,8.272247772,-4.269421692,0.047900391,9.309153519
3.311571667,7.387737122,-4.52119812,-0.109721832,8.662097385
3.321603667,6.635700989,-4.796924744,-0.354313202,8.195642284
3.331635667,6.023174744,-4.921016693,-0.740210724,7.812998861
3.341668667,5.949976959,-4.485572205,-1.31636261,7.566729435
3.351700667,6.295308838,-3.619772644,-1.953737183,7.520023693
3.361732667,7.140900421,-2.562072144,-2.595452728,8.018294542
3.371765667,8.098309479,-1.550775146,-2.81055542,8.711299658
3.381797667,8.69017868,-0.795296173,-2.704575806,9.135996486
3.391829667,9.089997253,-0.346828766,-3.144660645,9.624823678
3.401862667,9.479337616,-0.164208527,-3.951931915,10.27144449
3.411894667,9.604178009,-0.174986115,-4.803660736,10.73992606
3.421926667,9.407037964,-0.258811798,-5.319039001,10.80978828
3.431959667,9.5631633,-0.31823822,-5.275329895,10.92632021
3.441991667,10.14365616,-0.54052597,-5.147795105,11.38796395
3.452023667,10.51054321,-0.871338043,-4.66280365,11.53136967
3.462056667,10.77624069,-1.131047974,-4.193230133,11.61851161
3.472088667,10.97682358,-1.280137939,-3.844156036,11.70072411
3.482120792,11.08894043,-1.461710358,-3.719914398,11.78723717
3.492153792,11.34445908,-1.525926819,-3.537892914,11.98089691
3.502185792,11.41092087,-1.510209503,-3.289559326,11.97125926
3.512217792,11.66898422,-1.30229187,-2.949316864,12.10618135
3.522250792,11.87675217,-0.877475281,-2.556533661,12.18043797
3.532282792,11.90294769,-0.42945694,-2.330354004,12.1365212
3.542314792,11.84337158,-0.05269043,-2.11195816,12.03031978
3.552347792,11.65416504,0.184117126,-2.084864502,11.84061324
3.562379792,11.59204422,0.227077789,-2.058668976,11.77561767
3.572411792,11.74293045,0.313897247,-1.843566284,11.89090761
3.582444792,11.88842789,0.649649048,-1.581161957,12.01069668
3.592476792,11.76149185,0.930764465,-1.488953705,11.89184579
3.602508792,11.56554932,0.967138824,-1.509910126,11.70372236
3.612541792,11.62722107,0.751138,-1.481469269,11.74526412
3.622573792,11.82570831,0.433199158,-0.85187851,11.86426296
3.632605792,11.99261124,0.752934265,0.237556,12.01857176
3.642638792,11.69383255,1.100960541,0.502355347,11.7562832
3.652670792,11.21916962,1.284179535,0.500559082,11.30351465
3.662702792,10.83955902,1.413959656,0.576002197,10.94655655
3.672735792,10.50725006,1.398092651,0.768651581,10.62768988
3.682767792,10.33061737,1.299148407,1.121467896,10.4722076
3.692799792,10.2319725,1.131946106,1.515747986,10.40538588
3.702832792,10.53419403,1.266815643,1.856738892,10.77132977
3.712864792,11.11034592,1.604812775,2.183209991,11.43597903
3.722896792,11.11783035,1.533710632,1.904040527,11.38348762
3.732929792,11.11498627,1.295555878,1.37833374,11.27480326
3.742961792,11.47393982,0.77927948,0.833766174,11.53055669
3.752993792,11.98812057,0.054786072,0.747844849,12.01154896
3.763026792,12.36952744,-0.345780945,1.141226807,12.42687298
3.773058792,13.05794586,-0.254770203,1.935175781,13.20302099
3.783090792,13.91012375,-0.06316864,2.663710785,14.16301127
3.793123792,14.92501328,0.304317169,3.22010376,15.27146681
3.803155792,15.94633942,0.655187531,3.650159454,16.37188674
3.813187792,17.05972412,1.039588165,4.381089478,17.64394728
3.823219792,18.26516739,1.855990448,5.925877075,19.29189103
3.833252792,19.28529602,2.939138031,7.928712158,21.05767441
3.843284792,19.57389587,4.034709778,9.055868225,21.94139996
3.853316792,19.27436874,4.055965576,8.607400818,21.495104
3.863349792,18.34150864,2.801723785,6.935228119,19.80802828
3.873381792,16.94371536,1.474433899,4.863685913,17.68951345
3.883413792,15.50086578,0.7617659,3.462898865,15.90121995
3.893446792,14.20680679,0.356259155,2.864892426,14.49716829
3.903478792,13.55566086,0.455951843,2.981200562,13.88709437
3.913510792,12.98100586,0.67749115,2.603086853,13.25675558
3.923543792,12.05503143,0.663869476,2.486179962,12.32662145
3.933575792,11.9147731,1.284927979,2.388582916,12.21958208
3.943607792,12.24274109,1.545086975,2.085313568,12.51481266
3.953640792,12.61875916,1.507365417,1.012344818,12.74872837
3.963672792,13.02471497,1.764081573,0.412841492,13.1501187
3.973704792,13.63724121,2.368973694,0.206869812,13.84301916
3.983737792,14.05307648,2.827320557,-0.691112823,14.3513183
3.993769792,14.67623062,3.219654694,-1.905387726,15.1455744
4.003801792,15.46988022,3.532803497,-3.135529633,16.17496339
4.013834792,16.49704422,3.739224243,-3.72440506,17.32066566
4.023866792,17.24683502,3.533102875,-3.906725922,18.03326486
4.033898792,17.38140518,2.840792542,-4.13155838,18.09013883
4.043931792,17.63872009,2.163900146,-3.995042267,18.21447976
4.053963792,17.60054947,1.671723633,-3.533252563,18.02936147
4.063995792,16.88608521,0.866847382,-3.477418671,17.26220549
4.074028792,16.17775818,0.041613464,-3.453169098,16.54224798
4.084060792,15.54217987,-0.556243286,-3.235970764,15.8852217
4.094092792,15.05105118,-1.064885559,-2.875819702,15.36028847
4.104125792,14.65826797,-1.461560669,-2.499053192,14.94142719
4.114157792,14.16324738,-1.786534882,-2.287842407,14.45764524
4.124189792,13.55341553,-2.041005707,-2.343227234,13.90508866
4.134222792,13.21452026,-2.087558899,-2.085463257,13.53996326
4.144254792,12.88430695,-2.01256485,-1.609752502,13.13952381
4.154286792,12.34123627,-2.015708313,-1.234632568,12.56556844
4.164318792,11.73679321,-2.258503418,-1.3947995,12.03322975
4.174351792,11.0840007,-2.713706818,-1.752854919,11.54520579
4.184383792,10.75633209,-2.809208221,-1.630259857,11.236017
4.194415792,10.38001465,-2.719993744,-1.289119263,10.8076315
4.204448792,10.14126114,-2.555336151,-0.980760498,10.50413307
4.214480792,9.805209961,-2.505938873,-0.858315125,10.15670108
4.224512792,9.262887726,-2.661016388,-1.051563263,9.694734784
4.234545792,8.727301483,-2.832859039,-1.066681824,9.237353064
4.244577792,8.38481369,-2.703228607,-0.753233643,8.841940197
4.254609792,8.093818817,-2.471809845,-0.416883087,8.473106777
4.264642792,7.761958923,-2.48288681,-0.488883362,8.164051701
4.274674792,7.326813812,-2.78944931,-0.334554291,7.846983794
4.284706792,6.745871887,-2.676883392,-0.0398172,7.257690929
4.294739792,6.590494995,-2.688559113,-0.249531097,7.122165412
4.304771792,6.690037994,-2.841690674,-0.355959778,7.277260585
4.314803792,6.730004883,-3.145858154,-0.264949036,7.433679253
4.324836792,6.647676086,-3.596720581,-0.337847443,7.565853368
4.334868792,6.645580444,-3.968697052,-0.420774994,7.751860895
4.344900792,6.774612122,-4.160747681,-0.265996857,7.954743553
4.354933792,6.739285583,-4.305197296,-0.022004242,7.997073097
4.364965792,6.485413513,-4.402045898,0.006885681,7.838280675
4.374997792,6.229745178,-4.548441467,-0.268691254,7.718175935
4.385030792,6.255341949,-4.97280899,-0.867146759,8.038039292
4.395062792,6.332431641,-5.499713287,-1.546583862,8.528684445
4.405094792,6.726711731,-5.739963684,-1.760189667,9.016324166
4.415126792,7.093598785,-5.685027924,-1.52577713,9.217737362
4.425159792,7.288942566,-5.578599243,-1.494043121,9.299549349
4.435191792,7.75881546,-5.258115692,-1.354682922,9.470066726
4.445223792,8.309370575,-4.873565369,-0.817300415,9.667743207
4.455256792,8.429869995,-4.425547028,-0.206420746,9.523170908
4.465288792,8.557853851,-3.711980896,0.042361908,9.32831492
4.475319917,9.223968658,-2.691702576,-0.121547241,9.609455463
4.485352917,10.16401382,-1.579365692,-0.573906555,10.30198727
4.495384917,10.9034761,-0.531694336,-1.282233582,10.99147911
4.505416917,11.51824768,0.325123901,-2.248474274,11.74016064
4.515449917,11.94785431,0.88570816,-3.266207886,12.41788289
4.525481917,12.16415451,1.19466568,-4.115541687,12.8969595
4.535513917,12.1059256,1.030457153,-4.878355408,13.09250274
4.545546917,11.28188919,1.000968475,-5.259911957,12.48797964
4.555578917,10.89674011,0.369132385,-5.483995972,12.20448342
4.565610917,10.66352509,-0.724643097,-5.885012054,12.20119837
4.575643917,10.26595184,-1.539099426,-5.910608826,11.94545483
4.585675917,9.735455017,-2.276466064,-5.454058228,11.38894786
4.595707917,9.158704376,-3.088377686,-4.989723816,10.87737497
4.605740917,8.970246277,-3.724554749,-4.402644653,10.66400048
4.615772917,9.244476013,-3.74311615,-3.664230194,10.62533944
4.625804917,9.704918518,-3.450474701,-3.244952087,10.79911724
4.635836917,9.975705414,-3.178190918,-3.225492554,10.95533652
4.645869917,10.29094986,-2.746788025,-3.408262482,11.18323507
4.655901917,10.80063995,-2.28514801,-3.694317627,11.64146501
4.665933917,11.42858414,-1.891466675,-3.964805145,12.24376827
4.675966917,11.48845963,-1.181193695,-4.137845306,12.2679129
4.685998917,11.88049438,-0.73362442,-4.013753357,12.56163077
4.696030917,12.2134021,-0.386945343,-3.877985687,12.82012834
4.706063917,12.44541962,-0.104782104,-3.726650391,12.99181942
4.716095917,12.74913803,-0.08771759,-3.277284851,13.1639208
4.726127917,12.77668076,0.060773621,-2.896626434,13.10105756
4.736160917,12.61142441,0.335901489,-2.445764008,12.85078274
4.746192917,12.56397308,0.625399475,-2.085612946,12.751248
4.756224917,12.72399033,0.986448669,-1.751058655,12.88173968
4.766257917,12.82143768,1.406325531,-1.165326691,12.95086878
4.776289917,12.6353746,1.84760788,-0.371078339,12.77513387
4.786321917,12.42266693,2.331252136,0.333805847,12.6439241
4.796354917,12.25067459,2.738255768,0.791404266,12.57789304
4.806386917,12.18840408,3.010988617,1.110241241,12.60380427
4.816418917,12.19409225,3.163371735,1.478924561,12.68424316
4.826450917,12.17837494,3.314557343,1.928739166,12.76789494
4.836483917,12.1152063,3.310964813,2.160606995,12.74397639
4.846515917,11.8391803,3.058739319,1.649270325,12.33864534
4.856547917,11.66015259,2.492466888,0.872685242,11.9554644
4.866580917,11.86612427,1.754501495,0.114062805,11.99567384
4.876612917,12.36144424,0.832568665,-0.431702271,12.39696903
4.886644917,13.21616684,-0.122445374,-0.606838074,13.23065801
4.896677917,14.06415344,-0.889600067,-0.486338654,14.10064983
4.906709917,14.51247116,-1.519340515,-0.083975372,14.5920275
4.916741917,14.63970657,-2.01600769,0.678239594,14.79342099
4.926774917,14.8609465,-2.033371582,1.657652893,15.0907304
4.936806917,15.26884827,-1.722767487,3.027454376,15.66113454
4.946838917,15.70384369,-1.247805176,4.605023804,16.41261614
4.956871917,15.76267136,-0.612077179,5.82588501,16.81598593
4.966903917,15.71207657,0.174237671,6.503525848,17.00575071
4.976935917,15.93107117,1.120719452,6.719077606,17.32631076
4.986968917,16.3141246,2.108964386,6.653813324,17.7446224
4.997000917,16.93937439,3.074756012,6.283633118,18.32704489
5.007032917,16.95973206,3.753294983,5.296286316,18.15958104
5.017064917,16.29436569,4.079017639,4.067491608,17.28262787
5.027097917,15.4528157,4.250710602,2.847678223,16.27781696
5.037129917,14.30649948,4.143683167,1.523531799,14.97221382
5.047161917,12.98025742,3.776796112,0.431103516,13.52542501
5.057194917,11.88498505,3.410657501,0.075443115,12.36491592
5.067226917,11.39789795,3.208128662,0.126636658,11.84146123
5.077258917,11.35239258,2.883603516,0.020956421,11.71291704
5.087291917,11.63021484,2.58242981,0.060474243,11.91362657
5.097323917,12.21145615,2.415676575,0.01407074,12.44810638
5.107355917,12.64480499,2.252216492,-0.360600128,12.84887563
5.117388917,12.97801208,2.352807312,-1.025367737,13.22935671
5.127420917,13.52542374,2.809806976,-1.708846436,13.91949204
5.137452917,14.34047882,3.300636292,-2.382445679,14.90703123
5.147484917,15.20358398,3.665278015,-2.899919586,15.90574621
5.157517917,15.44593002,3.993844757,-3.532055054,16.34022531
5.167549917,15.29908539,4.001478882,-4.013154602,16.31500098
5.177581917,15.29788788,3.585793304,-4.117637329,16.24309774
5.187614917,15.18053192,2.8970755,-4.341122589,16.05263035
5.197646917,14.67862564,2.118394775,-4.692591705,15.55538698
5.207678917,14.44271622,1.435215454,-4.796625366,15.28592523
5.217711917,14.45319443,0.807720337,-4.503385162,15.1600699
5.227743917,14.18570068,0.199385376,-4.033661957,14.7493826
5.237775917,13.53066284,-0.347277832,-3.742218018,14.04292115
5.247808917,13.21302338,-0.680335236,-3.416345673,13.66448903
5.257840917,12.96394135,-0.837059326,-3.16741333,13.3714977
5.267872917,12.4151825,-0.935255127,-3.070415039,12.82337347
5.277905917,11.98318085,-0.956660614,-2.963387604,12.38117478
5.287937917,11.67272644,-0.872984619,-2.788700867,12.03293386
5.297969917,11.14163086,-0.939147034,-2.787054291,11.52326373
5.308001917,10.64526306,-1.064586182,-2.770588531,11.05129541
5.318034917,10.28601013,-1.077459412,-2.722987518,10.69474564
5.328066917,9.932744751,-0.953816528,-2.666554871,10.3285865
5.338098917,9.69294342,-0.702788544,-2.690205688,10.08386189
5.348131917,9.643995209,-0.64006897,-2.715203705,10.03935571
5.358163917,9.719438324,-0.320034485,-2.692151642,10.09046995
5.368195917,9.780960388,0.089214478,-2.321971436,10.05319336
5.378228917,9.824669495,-0.055684204,-2.354004822,10.10289909
5.388260917,9.856253815,-0.309107208,-2.512674866,10.17618895
5.398292917,10.01657043,-0.259111176,-2.329904938,10.28723864
5.408325917,10.01327728,-0.180674286,-2.010768585,10.21477143
5.418357917,9.952054596,-0.352666626,-1.892364807,10.13650872
5.428389917,10.02165985,-0.788560181,-1.882036285,10.22729455
5.438421917,10.14754807,-1.221310272,-1.758842468,10.37101043
5.448454917,10.18257523,-1.597777405,-1.642684021,10.4372478
5.458486917,10.31684601,-1.937870178,-1.731150055,10.63905696
5.468518917,10.45800247,-2.262694702,-1.839375,10.85692882
5.478552333,10.55155792,-2.585722961,-1.9282901,11.0335688
5.488584333,10.69705536,-2.905907135,-1.983824615,11.26085475
5.498616333,10.83806213,-3.232827301,-1.913321228,11.4706391
5.508649333,10.56368271,-3.588787079,-1.598675537,11.27060551
5.518681333,10.01372635,-3.763922882,-1.218765564,10.76695037
5.528713333,9.558822327,-3.801794128,-1.002465363,10.33584344
5.538746333,9.150172119,-3.888314209,-0.970581665,9.989327603
5.548778333,8.63988327,-4.00402359,-0.880918121,9.563252824
5.558810333,8.002359009,-4.131857758,-0.770148468,9.0389782
5.568843333,7.096891937,-4.23918457,-0.543070679,8.284412276
5.578875333,6.115083618,-4.173920288,-0.341889038,7.411662859
5.588907333,5.536087646,-3.777694244,-0.241298218,6.706524067
5.598939333,5.485043793,-3.048859863,-0.521066437,6.297043918
5.608972333,5.770200806,-2.159409485,-1.332528992,6.303483178
5.619004333,6.009852448,-1.256187744,-2.368824005,6.580855663
5.629036333,6.501130829,-0.360899506,-3.405268707,7.347843594
5.639069333,7.44521759,0.385149078,-4.315076752,8.613912709
5.649101333,7.942483521,1.084794159,-4.977449341,9.435826661
5.659133333,7.912994843,1.185684357,-5.397775269,9.651803594
5.669166333,7.832462311,0.649499359,-5.709576874,9.714349353
5.679198333,7.85476593,-0.088016968,-6.03410202,9.905325941
5.689230333,8.024812317,-0.69739975,-5.983058167,10.03399044
5.699263333,8.074359283,-1.20514389,-5.61527298,9.908528663
5.709295333,8.014034729,-1.579365692,-5.259313202,9.714912454
5.719327333,7.951614532,-1.594035187,-4.90619751,9.478390995
5.729359333,8.251141663,-1.279389496,-4.618495789,9.541943176
5.739392333,8.751251678,-1.026864624,-4.442012787,9.867640777
5.749424333,9.263636169,-0.856818237,-4.40533905,10.29349818
5.759456333,9.588610382,-0.767154694,-4.202810211,10.49731342
5.769489333,9.810598755,-0.715212708,-3.77230545,10.53516329
5.779521333,9.995913391,-0.697549438,-3.254232788,10.53541128
5.789553333,10.16910324,-0.669857025,-2.88899231,10.59271664
5.799586333,10.26714935,-0.534239044,-2.750081177,10.64249565
5.809618333,10.28720764,-0.303568726,-2.841241608,10.6766778
5.819650333,10.47192352,0.021255798,-2.894680481,10.86465872
5.829682333,10.65379532,0.38380188,-2.847378845,11.03441094
5.839715333,10.85138443,0.672551422,-2.723735962,11.20819375
5.849747333,10.99478622,0.932710419,-2.583777008,11.33274797
5.859779333,11.02577179,1.097068634,-2.418370972,11.3410635
5.869812333,11.14492401,1.140478363,-2.28514801,11.43380617
5.879844333,11.36586456,1.247805176,-2.135010223,11.63177388
5.889876333,11.62198196,1.338217163,-1.85688858,11.84522373
5.899909333,11.79217804,1.313518524,-1.520837402,11.96217958
5.909941333,11.93977112,1.305435333,-1.09287735,12.06054214
5.919973333,12.1602626,1.378633118,-0.590072937,12.25237944
5.930006333,12.56696686,1.467398529,-0.12289444,12.65294501
5.940038333,12.94103897,1.589095459,0.366437988,13.04338878
5.950070333,13.01214111,1.574126587,0.869541779,13.13582102
5.960102333,12.98549652,1.457369385,1.218915253,13.12374946
5.970135333,13.06258621,1.286125488,1.435065765,13.20396498
5.980167333,13.27484482,1.096769257,1.471589813,13.40111877
5.990199333,13.72376129,1.00156723,1.377734985,13.82906051
6.000232333,14.16983368,0.893491974,1.183289337,14.24719931
6.010264333,14.6088707,0.762364655,1.007105713,14.66337495
6.020296333,15.24370056,0.752634888,1.019080811,15.29625417
6.030329333,15.75024719,0.766855316,1.303788757,15.82271212
6.040361333,15.9625058,0.998274078,1.975741425,16.11526285
6.050393333,16.1071051,1.62292511,2.924917603,16.45077091
6.060425333,16.32490219,2.514321442,3.75479187,16.93879293
6.070458333,16.66065399,3.51499054,4.663851471,17.65457619
6.080490333,17.2656958,4.417613525,5.388494568,18.61868509
6.090522333,17.26105545,5.487438812,5.569468231,18.9492743
6.100555333,17.06331665,6.176306305,5.561534729,18.97983675
6.110587333,16.8197731,6.273603973,5.359305267,18.73459439
6.120619333,16.28508499,6.162984009,4.867278442,18.07973353
6.130652333,15.4448822,6.099815369,4.385729828,17.1751786
6.140684333,14.39900711,6.155948639,3.94669281,16.14941155
6.150716333,13.31241669,6.346203003,3.480861511,15.15292472
6.160748333,12.3342009,6.478827209,2.987487488,14.24895769
6.170781333,11.78409485,6.425987091,2.31673233,13.62077275
6.180813333,11.63111298,6.268065491,1.491498413,13.29646576
6.190845333,11.7064064,6.051914978,1.034049683,13.21873233
6.200878333,11.809991,5.672454071,0.627944183,13.11666636
6.210910333,12.11236221,5.236560516,0.283360748,13.1989082
6.220942333,12.72863068,4.858596497,-0.096549225,13.62473194
6.230975333,13.60116623,4.424499207,-0.30416748,14.30595799
6.241007333,14.61994766,4.142485657,-0.318387909,15.19882982
6.251039333,15.56732758,4.143383789,-0.233215027,16.11098092
6.261072333,16.5530278,4.140090637,-0.116158447,17.06331072
6.271104333,17.38859024,4.009262695,-0.21644989,17.84612307
6.281136333,18.02386917,3.784879303,-0.637224884,18.42800116
6.291168333,18.1867305,3.250939636,-0.885408783,18.49620835
6.301201333,18.1641275,2.583627319,-1.011446686,18.37481109
6.311233333,17.98420166,1.905836792,-1.243015137,18.12757043
6.321265333,17.72613831,1.397942963,-1.454974365,17.84060465
6.331298333,17.23575806,1.030008087,-1.552571411,17.33616885
6.341330333,16.56709854,0.809217224,-1.676214294,16.67133111
6.351362333,15.8695491,0.595910797,-2.03247345,16.01026692
6.361395333,15.13293091,0.457149353,-2.470163269,15.34002249
6.371427333,14.50109482,0.344433746,-2.856659546,14.78380497
6.381459333,14.1084613,0.212408295,-3.040477295,14.43392877
6.391491333,13.90308838,0.127983856,-3.063080292,14.23708914
6.401524333,13.64053436,0.023800507,-2.981799316,13.96265989
6.411556333,13.30089066,-0.1778302,-2.853067017,13.6046061
6.421588333,13.02246964,-0.397423553,-2.718496857,13.30912792
6.431621333,12.7004892,-0.713566132,-2.449805603,12.95427149
6.441653333,12.34692444,-1.155596924,-2.051932983,12.56950183
6.451685333,11.91851532,-1.636247406,-1.383572845,12.10960721
6.461718333,11.49250122,-1.866169281,-0.649798737,11.66114962
6.471750333,11.12456635,-1.721569977,-0.32766861,11.26175591
6.481782208,10.56502991,-1.631607056,-0.972826996,10.73444879
6.491814208,9.979447632,-1.544338531,-1.908531189,10.27700578
6.501847208,9.298064575,-1.361418915,-2.749781799,9.791259687
6.511879208,8.637488251,-1.154998169,-3.306923218,9.320727719
6.521911208,8.221652985,-0.959804077,-3.452570343,8.968670115
6.531944208,7.927215271,-0.867146759,-3.248245239,8.610678405
6.541976208,7.769593048,-0.866398315,-2.852468262,8.321886647
6.552008208,7.839647369,-0.838107147,-2.568658447,8.292195167
6.562041208,7.970475311,-0.890647888,-2.376907196,8.364892
6.572073208,7.980354767,-1.079854431,-2.351160736,8.389285107
6.582105208,7.945327606,-1.418600006,-2.421963501,8.426539263
6.592137208,7.91449173,-1.806144104,-2.466720428,8.48445906
6.602170208,7.833360443,-2.077380066,-2.504292297,8.482247561
6.612202208,7.720794525,-2.255809021,-2.564167786,8.442410726
6.622234208,7.552095337,-2.426903229,-2.578388214,8.340988493
6.632267208,7.292535095,-2.586621094,-2.492167511,8.129118999
6.642299208,7.133715363,-2.637964325,-2.354453888,7.961922115
6.652331208,7.025490417,-2.814447327,-2.160157928,7.870508982
6.662364208,6.786587219,-3.036286011,-1.867815857,7.665868176
6.672396208,6.464606781,-3.248245239,-1.642983398,7.419004813
6.682428208,6.203998718,-3.600911865,-1.494043121,7.327232165
6.692460208,6.120472412,-4.115092621,-1.435215454,7.513588572
6.702493208,5.950126648,-4.588857422,-1.396146698,7.642698814
6.712525208,5.644761658,-5.24194931,-1.087937622,7.779779882
6.722557208,5.315296783,-5.928421783,-0.888701935,8.011763593
6.732590208,4.730912018,-6.117328949,-0.658031616,7.761201428
6.742622208,4.429588623,-5.627397766,-0.21180954,7.164755702
6.752654208,5.195545807,-4.611759796,0.186212769,6.94958271
6.762686208,6.939569092,-3.158432007,0.001796265,7.62452065
6.772719208,8.593629456,-1.694176941,-0.6728508,8.784840973
6.782751208,10.06252487,-0.443976746,-1.804048462,10.2326005
6.792783208,11.28248795,0.516276398,-3.12415329,11.71842179
6.802816208,12.09604614,1.122665405,-4.409380646,12.92351916
6.812848208,12.24289078,1.138233032,-5.637127533,13.52631346
6.822880208,12.00114349,0.73362442,-6.504573669,13.67022782
6.832913208,11.7197287,0.136216736,-6.775659943,13.53810044
6.842945208,11.549832,-0.421523438,-6.350693665,13.18740351
6.852977208,11.572435,-0.882714386,-5.34493515,12.77766678
6.863009208,11.52498367,-1.322799225,-4.331841888,12.38304892
6.873042208,11.54489227,-1.714983673,-3.4212854,12.16268475
6.883074208,11.59174484,-1.999541931,-2.558030548,12.03786678
6.893106208,11.50986511,-2.017504578,-1.742077332,11.81448912
6.903139208,11.46810196,-1.887874146,-1.341360626,11.69960169
6.913171208,11.57722504,-1.584455109,-1.381477203,11.76652526
6.923203208,11.71164551,-1.174008636,-1.600920868,11.8787156
6.933236208,11.88902664,-0.669108582,-1.781744843,12.0404018
6.943268208,11.93273575,-0.194595337,-1.887425079,12.08264968
6.953300208,12.03347626,0.236059113,-1.81826889,12.17236117
6.963332208,12.22088654,0.844992828,-1.804497528,12.38225714
6.973365208,12.36713242,1.378483429,-1.853894806,12.58106143
6.983397208,12.39692047,1.700912933,-1.838476868,12.64740049
6.993429208,12.32387238,1.846859436,-1.774410095,12.587186
7.003462208,12.17687805,1.670526123,-1.820514221,12.42502671
7.013494208,12.24902802,1.402283936,-1.790576477,12.45838078
7.023526208,12.40275833,1.277443542,-1.51874176,12.56052757
7.033558208,12.60798157,1.261726227,-1.025517426,12.71238916
7.043591208,12.89029449,1.328786774,-0.31120285,12.96233828
7.053623208,13.13668213,1.546284485,0.579445038,13.24005928
7.063655208,13.28098206,1.862127686,1.371747437,13.48086403
7.073688208,13.58200607,2.240241394,2.178569641,13.93684814
7.083720208,13.63275055,2.722089386,2.349065094,14.0989278
7.093752208,13.58215576,2.949167175,2.035766602,14.04695297
7.103784208,14.07418259,2.847378845,1.654958496,14.4543789
7.113817208,14.60662537,2.59754837,1.227597198,14.88649579
7.123849208,14.84672607,2.172582092,1.009351044,15.03875585
7.133881208,14.96138763,1.599423981,1.087338867,15.08587362
7.143914208,15.03024445,1.017434235,1.249751129,15.11639171
7.153946208,15.19729706,0.583935699,1.352886658,15.26856644
7.163978208,15.48724411,0.456251221,1.540147247,15.5703227
7.174011208,15.6466626,0.659827881,1.924996948,15.77843581
7.184043208,15.97163681,1.401984558,2.477947083,16.22340793
7.194075208,16.63595535,2.572250977,3.31725174,17.15737872
7.204107208,17.59830414,3.959715729,4.299509125,18.54360903
7.214140208,18.61064896,5.327571259,5.370531921,20.08934751
7.224172208,19.20895477,6.320007477,6.114933929,21.12625984
7.234204208,19.35430252,6.841373291,6.262976074,21.46201957
7.244237208,19.15611465,6.766828308,5.881718903,21.15044471
7.254269208,18.77365997,6.224356384,5.280868378,20.47145554
7.264301208,17.681082,5.819298706,4.290527802,19.10218644
7.274333208,16.54195084,5.314847717,3.600163422,17.74386994
7.284366208,15.64307007,5.101092224,3.183729401,16.75896524
7.294398208,15.02799911,5.217699738,3.025508423,16.19317292
7.304430208,14.5704007,5.246889038,2.700683899,15.72005453
7.314463208,14.1204364,5.152435455,2.111209717,15.17865349
7.324495208,13.84141663,4.934189301,1.51754425,14.77274446
7.334527208,13.78633118,4.496499481,0.936003571,14.5312607
7.344559208,13.88572449,3.927832031,0.357905731,14.43500279
7.354592208,14.05187897,3.293301544,-0.105979614,14.43303049
7.364624208,14.15007477,2.710563354,-0.492924957,14.4157811
7.374656208,14.33134781,2.202370148,-0.985400848,14.53303062
7.384689208,14.88938736,1.894610138,-1.383572845,15.0730779
7.394721208,15.60340256,1.818418579,-1.644779663,15.79487631
7.404753208,15.98301315,1.764979706,-1.920955353,16.19450315
7.414786208,16.29750916,1.610500946,-1.815724182,16.477238
7.424818208,16.21308472,1.399290161,-1.713187408,16.36328635
7.434850208,15.85008957,1.164877625,-1.835782471,15.9985117
7.444882208,15.43679901,0.978814545,-2.095941467,15.60915796
7.454915208,14.9432753,0.773591309,-2.440973969,15.1610776
7.464947208,14.53103256,0.511186981,-2.570155334,14.76542982
7.474979208,14.24527679,0.283809814,-2.387235718,14.44670735
7.485012667,13.87928787,-0.001347198,-2.129771118,14.04174343
7.495044667,13.54877518,-0.30072464,-1.845063171,13.67713428
7.505076667,13.41585159,-0.559087372,-1.52233429,13.51351747
7.515108667,13.26272003,-0.778980103,-1.287023621,13.34777069
7.525141667,12.93924271,-0.957708435,-1.103654938,13.02149229
7.535173667,12.56816437,-1.040037231,-1.057251434,12.65536304
7.545205667,12.1337677,-1.125210114,-1.251846771,12.24996068
7.555238667,11.71119644,-1.270857239,-1.51754425,11.87729518
7.565270667,11.29566055,-1.459165649,-1.762584686,11.52509508
7.575302667,10.95676529,-1.597478027,-1.975442047,11.24744473
7.585334667,10.66113007,-1.644929352,-2.061213684,10.98244457
7.595367667,10.39902512,-1.716630249,-2.046394501,10.73658573
7.605399667,10.08378067,-1.798210602,-2.061812439,10.44831396
7.615431667,9.858050079,-1.775757294,-2.118544464,10.23829556
7.625464667,9.691895599,-1.655257874,-2.141147461,10.06266522
7.635496667,9.360933838,-1.508562927,-2.161654816,9.724998507
7.645528667,9.098679199,-1.383423157,-2.200424194,9.462647063
7.655560667,9.057065735,-1.326990509,-2.169738007,9.407396375
7.665593667,9.002579041,-1.288670197,-2.19159256,9.354687499
7.675625667,8.881181488,-1.321751404,-2.406096497,9.295790001
7.685657667,9.03655838,-1.323547668,-2.69349884,9.521874909
7.695690667,9.345216522,-1.325194244,-2.883154449,9.869234581
7.705722667,9.525441742,-1.459465027,-2.903212738,10.06442859
7.715754667,9.525591431,-1.673370209,-2.75322464,10.05571011
7.725786667,9.440568237,-1.857337646,-2.493065643,9.939286095
7.735819667,9.3455159,-2.105072479,-2.253264313,9.84109738
7.745851667,9.309291229,-2.407144318,-1.953288116,9.811859224
7.755883667,9.288484497,-2.714455261,-1.669029236,9.819871191
7.765916667,9.151369629,-3.039579163,-1.362317047,9.7387122
7.775948667,9.000184021,-3.392994232,-1.094823303,9.680617766
7.785980667,8.565487976,-3.735332336,-0.687071228,9.369757671
7.796012667,7.896529083,-3.942351837,-0.350570984,8.832904935
7.806045667,7.073989563,-4.209396515,-0.147593079,8.232990409
7.816077667,6.296506348,-4.554429016,-0.045804749,7.771159111
7.826109667,5.432053986,-4.808001709,-0.020806732,7.254276246
7.836142667,4.591701508,-4.890031128,0.153430939,6.709669755
7.846174667,4.308041382,-4.554129639,0.362845459,6.279408741
7.856206667,4.396657104,-3.794758759,0.473764801,5.827112563
7.866238667,5.180726624,-2.775528259,0.357456665,5.888230696
7.876271667,6.221212921,-1.689536591,-0.099393311,6.447317514
7.886303667,7.481292572,-0.682879944,-1.013841705,7.580497251
7.896335667,8.693322144,0.194445648,-2.116149445,8.94928754
7.906368667,9.561816101,0.889899445,-3.197351074,10.12142787
7.916400667,10.12689102,1.397194519,-4.250560913,11.07128459
7.926432667,10.29918274,1.698068848,-5.010231171,11.57838587
7.936464667,10.23317001,1.737287292,-5.276078339,11.64357927
7.946497667,10.26340714,1.589245148,-4.896617432,11.48216393
7.956529667,10.40995239,1.313817902,-3.995042267,11.22735895
7.966561667,10.35576508,0.707129517,-3.011437683,10.80789801
7.976594667,10.36309982,-0.054187317,-2.018103333,10.55791245
7.986626667,10.22104523,-0.812510376,-1.134191437,10.31582904
7.996658667,9.897268524,-1.48131958,-0.440084839,10.01718057
8.006690667,9.804461517,-1.917213135,0.070054321,9.990399364
8.016723667,9.740843811,-2.087109833,0.446820831,9.971946373
8.026755667,9.858499146,-1.924697571,0.597407684,10.06237358
8.036787667,10.34199371,-1.510808258,0.429906006,10.46060203
8.046820667,11.02861588,-0.967138824,0.143102417,11.07186542
8.056852667,11.71119644,-0.199235687,-0.149389343,11.7138437
8.066884667,12.11011688,0.629291382,-0.377215576,12.13232171
8.076917667,12.18900284,1.263821869,-0.618064728,12.2699242
8.086949667,11.98812057,1.640289001,-0.823886719,12.12783461
8.096981667,11.93857361,1.753753052,-0.840352478,12.09592418
8.107013667,11.79996185,1.843117218,-0.767753448,11.96769093
8.117046667,11.84352127,1.884880371,-0.632285156,12.00922789
8.127078667,11.96551758,1.876647491,-0.447868652,12.12006613
8.137110667,12.09095673,1.779200134,-0.197289734,12.22275382
8.147142667,12.08960953,1.670975189,0.063018951,12.20470352
8.157175667,12.14679062,1.624571686,0.171543274,12.25614877
8.167207667,12.26339813,1.71767807,0.288450165,12.38646661
8.177239667,12.21370148,2.057920532,0.350720673,12.39082506
8.187272667,12.49661316,2.375559998,0.572259979,12.73326774
8.197304667,13.12186295,2.740800476,0.832418976,13.43086728
8.207336667,13.687836,3.034190369,0.79918808,14.04285822
8.217368667,14.27072388,3.21306839,0.629141693,14.64148858
8.227401667,14.71724533,3.154839478,0.499960327,15.05988986
8.237433667,15.01976624,2.936443634,0.400716705,15.30936487
8.247465667,15.24160492,2.561623077,0.39203476,15.46034038
8.257498667,15.35102737,2.143841858,0.411494293,15.50546442
8.267530667,15.44862442,1.767823792,0.618663483,15.56174611
8.277562667,15.62390991,1.635648651,1.058299255,15.74490091
8.287594667,15.70743622,1.679507446,1.619631958,15.87978292
8.297627667,15.56912384,1.711690521,2.260748749,15.82524839
8.307659667,15.24968811,1.593436432,2.77073822,15.58104674
8.317691667,15.0043483,1.412762146,3.080294495,15.38228133
8.327724667,14.91378662,1.242715759,3.079546051,15.2790372
8.337756667,14.93354553,1.157991943,2.915487213,15.25948207
8.347788667,14.99282227,1.186881866,2.758912811,15.2906837
8.357820667,15.04596176,1.468596039,2.655777283,15.34897041
8.367853667,15.21496033,2.182611237,2.609373779,15.59062671
8.377885667,15.17229904,3.128494263,2.785407715,15.73990568
8.387917667,15.53334824,4.15850235,2.961741028,16.35083971
8.397950667,15.68992264,5.21979538,3.066672821,16.81738441
8.407982667,15.67465439,6.267317047,3.071313171,17.15829297
8.418014667,15.40057434,6.965614929,2.545157318,17.09313626
8.428046667,14.80436417,7.225773926,1.90493866,16.58341938
8.438079667,14.19019135,7.079677734,1.062041473,15.89375032
8.448111667,13.70519989,6.471043396,0.539178772,15.16567244
8.458143667,13.78857651,5.635031891,0.399968262,14.90095303
8.468175667,13.96535889,4.948110352,-0.005987549,14.81604133
8.478208667,14.3991568,4.400549011,-0.50894165,15.06517739
8.488239833,15.07245667,3.926484833,-0.7418573,15.59315829
8.498271833,15.56119034,3.715872803,-1.206790466,16.04414842
8.508304833,16.05261841,3.657943268,-1.897603912,16.57311097
8.518336833,16.55332718,3.653901672,-2.550097046,17.1425387
8.528368833,16.86542816,3.621868286,-2.69469635,17.45915191
8.538400833,17.30506393,3.477268982,-2.327360229,17.80374239
8.548433833,16.92754898,3.282823334,-2.340233459,17.40102112
8.558465833,16.78489563,2.859054565,-1.856738892,17.12759159
8.568497833,16.44300659,2.089055786,-1.57607254,16.64994368
8.578530833,15.92104202,1.266965332,-1.872755585,16.0807958
8.588562833,15.5231694,0.408799896,-1.841021576,15.63730367
8.598594833,15.04341705,-0.288749542,-1.75390274,15.14806746
8.608626833,14.03122192,-1.084943848,-2.114502869,14.23107214
8.618659833,13.18278625,-1.773661652,-2.215542755,13.48481957
8.628691833,12.65917511,-2.128723297,-2.418969727,13.06283246
8.638723833,12.39692047,-2.146087189,-2.448757782,12.81739997
8.648756833,11.96342194,-1.886526947,-2.108964386,12.2935015
8.658788833,11.71329208,-1.539249115,-1.755249939,11.94367622
8.668820833,11.33457962,-1.32100296,-1.651515656,11.53018855
8.678852833,11.06783432,-1.207987976,-1.579066315,11.24498297
8.688885833,10.68388275,-1.241368561,-1.561253357,10.86848005
8.698917833,10.23646317,-1.353186035,-1.649270325,10.45640393
8.708949833,9.880503387,-1.476978607,-1.653012543,10.12611789
8.718982833,9.505084076,-1.652413788,-1.609602814,9.780997691
8.729014833,9.131461029,-1.788331146,-1.537003784,9.431017413
8.739046833,8.740923157,-1.880090332,-1.506018219,9.066783783
8.749078833,8.442892914,-1.843566284,-1.505269775,8.771944738
8.759111833,8.260871429,-1.786983948,-1.353934479,8.559699
8.769143833,7.876470795,-1.728455658,-1.179696808,8.149726112
8.779175833,7.429799652,-1.539997559,-1.038390656,7.658444392
8.789207833,7.276668091,-1.283281403,-0.992885284,7.455369263
8.799240833,7.346872101,-1.031055908,-0.957259369,7.480371077
8.809272833,7.422464905,-0.90920929,-1.01683548,7.546760973
8.819304833,7.448959808,-0.902772675,-1.192570038,7.597645953
8.829337833,7.546107788,-0.963546295,-1.491648102,7.752236985
8.839369833,7.694748688,-1.084943848,-1.819316711,7.980988273
8.849401833,7.703580322,-1.316063232,-2.12019104,8.097677584
8.859433833,7.654632111,-1.514251099,-2.383942566,8.159015339
8.869466833,7.600145416,-1.702409821,-2.701582031,8.243722158
8.879498833,7.671546936,-1.865420837,-3.122057648,8.48997475
8.889530833,7.951764221,-2.072889404,-3.600462799,8.97166412
8.899562833,8.418643341,-2.390828247,-3.962859192,9.606969782
8.909595833,8.951834564,-2.824476471,-3.921694794,10.17313617
8.919627833,9.386231232,-3.254831543,-3.51723587,10.53879563
8.929659833,9.737101593,-3.651955719,-2.83630188,10.77926418
8.939692833,9.706116028,-4.002975769,-1.789678345,10.65060805
8.949724833,9.458381195,-4.155059509,-0.69380722,10.3540747
8.959756833,9.029972076,-4.180506592,0.145796814,9.951798218
8.969788833,8.349337463,-3.729195099,0.852626953,9.183969996
8.979821833,7.726782074,-2.876568146,1.483564911,8.377277025
8.989853833,7.96478714,-1.781595154,1.55616394,8.308643793
8.999885833,8.888366547,-0.723744965,0.894839172,8.962566808
9.009918833,9.618548126,0.044008484,-0.06436615,9.618864164
9.019950833,10.42028091,0.562230835,-1.476230164,10.53933648
9.029982833,11.36706207,0.903072052,-2.994822235,11.78959709
9.040014833,11.96506851,1.156794434,-4.084256744,12.69575484
9.050047833,11.88797882,1.3350737,-4.638703766,12.83058981
9.060079833,11.32904114,1.278641052,-4.831951904,12.38264331
9.070111833,10.48569489,0.951720886,-4.651576996,11.51054901
9.080143833,10.19874161,0.593815155,-4.19128418,11.04236433
9.090176833,10.25547363,0.441881104,-3.419638824,10.8196085
9.100208833,10.13721954,0.228275299,-2.625540161,10.47419643
9.110240833,9.85326004,-0.082179108,-1.853146362,10.0263472
9.120273833,9.597142639,-0.423170013,-1.214274902,9.682906755
9.130305833,9.243577881,-0.751587067,-0.834963684,9.311593822
9.140337833,8.739276581,-0.97118042,-0.548609161,8.810171314
9.150369833,8.43630661,-0.977467346,-0.428858185,8.50356578
9.160402833,8.372688904,-0.773890686,-0.540825348,8.42575328
9.170434833,8.483009491,-0.385448456,-0.816402283,8.530916318
9.180466833,8.607700195,0.04445755,-1.116677856,8.679945193
9.190499833,8.771908722,0.451461182,-1.358874207,8.888010966
9.200531833,8.883426819,0.733474731,-1.654958496,9.065988355
9.210563833,8.927435303,0.927022247,-2.001787262,9.195956915
9.220595833,9.026978302,1.048868866,-2.348915405,9.386366003
9.230628833,9.135203247,1.15484848,-2.549797668,9.554427326
9.240660833,9.393565979,1.28477829,-2.437680817,9.789383271
9.250692833,9.588311005,1.350940704,-2.24069046,9.938885372
9.260724833,9.862391052,1.402134247,-1.844614105,10.13091007
9.270757833,10.39139099,1.4837146,-1.375938721,10.5865775
9.280789833,10.73028625,1.621877289,-0.910257111,10.89027534
9.290821833,11.13414642,1.711989899,-0.40715332,11.27235112
9.300854833,11.38981476,1.831740875,0.046553192,11.53626118
9.310886833,11.46780258,2.121089172,0.202229462,11.66406499
9.320918833,11.59204422,2.529440002,0.269888763,11.86787242
9.330950833,12.08646606,2.897823944,0.261506195,12.43175092
9.340983833,12.62145355,3.276835785,0.384849701,13.04556828
9.351015833,13.29625031,3.593876495,0.610580292,13.78691513
9.361047833,13.8882692,3.815864868,0.684825897,14.41921747
9.371079833,14.29377594,3.964954834,0.803079987,14.85522921
9.381112833,14.81424362,3.943699036,0.95246933,15.35974525
9.391144833,15.24025772,3.9362146,1.209634552,15.78678107
9.401176833,15.5457724,4.049379272,1.403032379,16.12566314
9.411209833,15.72539886,4.122427368,1.589394836,16.33428152
9.421241833,15.880177,4.196672974,1.671424255,16.51017095
9.431273833,15.87374039,3.97947464,1.388662262,16.42377043
9.441305833,15.63663345,3.356021118,1.0484198,16.02705112
9.451338833,15.41599228,2.747835846,0.893641663,15.68445138
9.461370833,15.23980865,2.2746698,0.900826721,15.43494021
9.471402833,15.12170425,1.960173798,0.961750031,15.27852035
9.481435667,15.11526764,1.92484726,1.050216064,15.27348377
9.491468667,15.07006165,2.184108124,1.173709259,15.27267756
9.501500667,14.9233667,2.549049225,1.352437592,15.1997899
9.511532667,14.5437561,2.934048615,1.511556702,14.91356049
9.521565667,14.06100998,3.351829834,1.583257599,14.54143973
9.531597667,13.53500381,3.727249146,1.618434448,14.13180967
9.541629667,13.0693222,4.19352951,1.531315613,13.81078565
9.551661667,12.67863464,4.528682556,1.217568054,13.5181069
9.561694667,12.30605942,4.500840454,0.741258545,13.12425721
9.571726667,12.11296097,4.182602234,0.130827942,12.81542433
9.581758667,12.14843719,3.718118134,-0.497714996,12.7144268
9.591790667,12.37117401,3.249742126,-1.028810577,12.83219473
9.601823667,12.78341675,2.935545502,-1.461261292,13.19728971
9.611855667,13.37543564,2.770438843,-1.987267456,13.80314608
9.621887667,13.87150406,2.75322464,-2.323468323,14.33169131
9.631919667,14.33179688,2.826572113,-2.563569031,14.83110912
9.641952667,14.69194794,2.946472778,-2.668500824,15.22024746
9.651984667,14.49435883,2.94856842,-2.692600708,15.03431382
9.662016667,14.09304337,2.845881958,-2.774779816,14.64282481
9.672049667,13.77181137,2.670895844,-2.542313232,14.25692216
9.682081667,13.47737366,2.42795105,-2.382595367,13.90004704
9.692113667,13.06587936,1.972298584,-2.27227478,13.40784837
9.702145667,12.69210663,1.478625183,-2.189796295,12.96422427
9.712178667,12.30830475,0.998573456,-2.091301117,12.52457804
9.722210667,11.94620773,0.521216125,-1.93772049,12.11355877
9.732242667,11.72781189,0.086969147,-1.777852936,11.86212023
9.742274667,11.48426834,-0.336500244,-1.843117218,11.63609612
9.752307667,11.19881195,-0.684975586,-1.926493835,11.38393426
9.762339667,10.89135132,-0.989143066,-1.828447723,11.0879736
9.772371667,10.500065,-1.445693665,-1.450334015,10.69789063
9.782404667,10.07689499,-1.772763519,-1.520987091,10.34407583
9.792436667,9.602232056,-1.7902771,-1.438209229,9.87301364
9.802468667,9.097332001,-1.798509979,-1.286873932,9.362271743
9.812500667,8.518036652,-1.878443756,-1.192719727,8.803867314
9.822533667,8.138426056,-1.808838501,-1.155746613,8.416746736
9.832565667,7.820636902,-1.717977448,-1.068029022,8.078025381
9.842597667,7.630831604,-1.544637909,-0.909658356,7.838556982
9.852629667,7.509883118,-1.408570862,-0.685873718,7.671560407
9.862662667,7.305558014,-1.421893158,-0.407003632,7.453764821
9.872694667,6.96666275,-1.484163666,-0.392633514,7.133813338
9.882726667,6.775210876,-1.550475769,-0.579894104,6.974506054
9.892759667,6.757397919,-1.557062073,-0.879421234,6.990010775
9.902791667,6.75485321,-1.50826355,-1.172062683,7.019731602
9.912823667,6.703809357,-1.474733276,-1.472338257,7.020233477
9.922855667,6.744075623,-1.447489929,-1.850002899,7.141449
9.932888667,6.944209442,-1.503623199,-2.23949295,7.449715174
9.942920667,7.275769958,-1.624272308,-2.546654205,7.877851018
9.952952667,7.598049774,-1.791773987,-2.706072693,8.262181541
9.962984667,7.925419006,-2.020648041,-2.799179077,8.644691344
9.973017667,8.262368317,-2.251318359,-2.892734528,9.038975473
9.983049667,8.563991089,-2.431543579,-3.029550018,9.403856701
9.993081667,8.751251678,-2.591560822,-3.13343399,9.649818755
10.00311367,8.812324677,-2.818039856,-3.118165741,9.763266483
10.01314667,8.813222809,-3.076851654,-2.750979309,9.731793233
10.02317867,8.947942657,-3.365900574,-2.320175171,9.837590015
10.03321067,9.143735504,-3.750301208,-1.986369324,10.08059131
10.04324367,9.373208313,-4.14098877,-1.675765228,10.38330444
10.05327567,9.411828003,-4.570445709,-1.106049957,10.52116091
10.06330767,9.169481964,-4.935835876,-0.409248962,10.42158145
10.07333967,8.66922226,-5.054089966,0.490829315,10.0468977
10.08337267,8.666976929,-5.298082581,1.648072815,10.2908849
10.09340467,8.604257355,-5.060975647,2.661016388,10.33091125
10.10343667,8.702004089,-4.336182861,3.254382477,10.25272463
10.11346867,9.247320099,-3.479364624,3.087479553,10.35139784
10.12350167,10.24843826,-2.668351135,2.537223816,10.88981585
10.13353367,11.40882523,-1.829046478,1.514849854,11.65338895
10.14356567,12.72279282,-0.797242126,0.023052063,12.74776778
10.15359767,14.20575897,0.212857361,-1.620230713,14.29944208
10.16363067,15.29414566,1.211730194,-3.020419006,15.63656332
10.17366267,14.87052658,2.25940155,-4.235592041,15.62618623
10.18369467,13.84680542,3.07026535,-4.999453583,15.03845357
10.19372767,12.89658142,3.460054779,-5.220693512,14.33699523
10.20375967,12.74749146,3.626508636,-5.217999115,14.24351144
10.21379167,12.8968808,3.556304626,-5.173092499,14.34356033
10.22382367,12.9393924,3.260370026,-4.677922211,14.14004401
10.23385667,12.81425262,2.814147949,-4.009711761,13.71868388
10.24388867,12.43583954,2.294877777,-3.369642792,13.08705703
10.25392067,11.72362061,1.745969238,-2.490970001,12.11183802
10.26395267,11.03101089,1.300495605,-1.563049622,11.21684511
10.27398567,10.24454636,1.003812561,-1.019679565,10.34398937
10.28401767,9.590556335,0.761316833,-0.88570816,9.661410512
10.29404967,9.205706635,0.545765076,-0.841400299,9.26017541
10.30408167,8.959917755,0.39787262,-0.753083954,9.000309119
10.31411467,8.712182922,0.318537598,-0.664168854,8.743266995
10.32414667,8.504714355,0.222886505,-0.60264679,8.528952328
10.33417867,8.279432831,0.107476501,-0.53828064,8.297608405
10.34421167,8.186176758,0.044906616,-0.471968536,8.199893951
10.35424367,8.015980682,-0.008083191,-0.471070404,8.029814379
10.36427567,7.765701141,0.013771362,-0.412542114,7.776663479
10.37430767,7.569010162,0.155526581,-0.416733398,7.582068984
10.38434067,7.453151093,0.316142578,-0.411494293,7.471193672
10.39437267,7.344926147,0.459394684,-0.385598145,7.369373753
10.40440467,7.257807312,0.595761108,-0.361797638,7.291199888
10.41443667,7.185208282,0.718206482,-0.329764252,7.228539484
10.42446967,7.14928299,0.7816745,-0.297132111,7.198024019
10.43450167,7.190746765,0.823138275,-0.189655609,7.240190944
10.44453367,7.30480957,0.947679291,-0.12289444,7.367051102
10.45456567,7.446864166,1.100960541,-0.178878021,7.529933424
10.46459867,7.793393555,1.260678406,-0.423469391,7.906049549
10.47463067,8.377478943,1.425036621,-0.751437378,8.53097538
10.48466229,9.019194489,1.627864838,-1.145418091,9.236221942
10.49469429,9.933642883,1.715582428,-1.774709473,10.23572556
10.50472729,11.10645401,1.709594879,-2.485132141,11.50877566
10.51475929,12.24513611,1.592388611,-2.981949005,12.70319171
10.52479129,13.48800156,1.415606232,-3.319197693,13.96234938
10.53482429,14.5942012,1.089883575,-3.404669952,15.02565581
10.54485629,15.68528229,0.782273254,-3.07730072,16.00343124
10.55488829,16.61919022,0.932411041,-2.305505676,16.80423251
10.56492029,17.51417908,1.370849304,-1.43686203,17.62640829
10.57495329,18.33522171,2.161804504,-0.807570648,18.4798789
10.58498529,18.66962631,3.242407379,-0.0199086,18.94910416
10.59501729,18.83428391,4.51296524,0.582588501,19.37618422
10.60504929,19.07618088,5.820496216,1.195713501,19.9802048
10.61508229,18.62891098,6.982380066,1.488055573,19.95004424
10.62511429,18.30438583,6.979086914,1.439706116,19.64257999
10.63514629,17.37032822,6.464307404,0.007185059,18.53417449
10.64517829,15.48963913,5.981411591,-1.797761536,16.7014416
10.65521129,13.42348572,5.490133209,-3.631148987,14.9504774
10.66524329,12.14753906,4.810546417,-5.087919617,14.02109083
10.67527529,11.55028107,4.135150909,-6.189628601,13.74117782
10.68530729,11.3839769,3.668870544,-6.808591461,13.76271989
10.69534029,11.67527115,3.28791275,-6.835834808,13.92303717
10.70537229,12.02973404,2.991678772,-6.381080475,13.94212433
10.71540429,12.24543549,2.546953583,-5.760620728,13.77034546
10.72543729,12.6699527,1.941612396,-5.366340637,13.89586888
10.73546929,13.01618271,1.138831787,-5.347030792,14.11767291
10.74550129,12.96483948,0.237406311,-5.427713013,14.05715096
10.75553329,12.25875778,-0.474962311,-5.494025116,13.44198808
10.76556629,12.09350143,-0.680634613,-5.091362457,13.13917852
10.77559829,11.48995651,-0.762813721,-5.21036499,12.6391807
10.78563029,11.16378479,-0.640667725,-4.946763153,12.22746955
10.79566229,11.49429749,-0.290096741,-4.19712204,12.24005164
10.80569529,11.46166534,0.022153931,-3.633993073,12.02398307
10.81572729,11.17261642,0.137414246,-3.210972748,11.62568649
10.82575929,11.17650833,0.263452148,-2.640958099,11.48731497
10.83579129,11.41436371,0.353714447,-2.322869568,11.65369194
10.84582429,11.4423555,0.258063354,-1.970652008,11.6136801
10.85585629,11.17665802,0.013022919,-1.623374176,11.29394518
10.86588829,10.99179245,-0.183069305,-1.446591797,11.08808565
10.87592029,10.78641953,-0.431552582,-1.414109344,10.88727647
10.88595329,10.57625656,-0.851279755,-1.339414673,10.69466744
10.89598529,10.33091675,-1.217118988,-0.941092987,10.44484923
10.90601729,9.975406036,-1.440155182,-0.287552032,10.08292907
10.91604929,9.639803925,-1.61124939,0.190404053,9.775387358
10.92608229,9.34776123,-1.775906982,0.728834381,9.542834232
10.93611429,9.15002243,-1.755399628,1.068627777,9.377969058
10.94614629,9.208251343,-1.532064056,0.693956909,9.360592356
10.95617829,9.370813293,-1.407073975,0.490080872,9.48852877
10.96621129,9.049581299,-1.370400238,0.15447876,9.154058236
10.97624329,9.041797485,-1.488953705,-0.182320862,9.165387378
10.98627529,8.794960785,-1.698368225,-0.164657593,8.958956522
10.99630729,8.393196259,-1.823058929,-0.60848465,8.610432095
11.00634029,8.063881073,-1.997895355,-0.952319641,8.362097614
11.01637229,7.995922394,-2.067650299,-1.16068634,8.340092653
11.02640429,8.069569244,-2.154619446,-1.400337982,8.468841669
11.03643729,8.020471344,-2.352507935,-1.715283051,8.532552379
11.04646929,7.920479279,-2.510130157,-2.02663559,8.552309467
11.05650129,7.745642853,-2.724783783,-2.464325409,8.572766741
11.06653329,7.6242453,-3.017724609,-2.849324799,8.680692946
11.07656629,7.484436035,-3.295546875,-2.958896942,8.696693802
11.08659829,7.30256424,-3.354823608,-2.855312347,8.528487235
11.09663029,7.216343536,-3.338507538,-2.768343201,8.419321273
11.10666229,7.266788635,-3.378474426,-2.710713043,8.459803291
11.11669529,7.442672882,-3.424728241,-2.687361603,8.622299898
11.12672729,7.621550903,-3.543581085,-2.701432343,8.828518663
11.13675929,7.807314606,-3.78293335,-2.55428833,9.043734569
11.14679129,7.975564728,-4.054019623,-2.432441711,9.271541431
11.15682429,8.120613098,-4.380939789,-2.495310974,9.558429127
11.16685629,8.447233887,-4.84647171,-2.299069061,10.00648624
11.17688829,8.806187439,-5.090614014,-1.769320679,10.32442657
11.18692029,8.820707245,-4.923860779,-1.16068634,10.16840568
11.19695329,8.881929932,-4.190685425,-0.878672791,9.860151597
11.20698529,8.976233826,-3.144361267,-0.779578857,9.542930612
11.21701729,9.363628235,-1.931882629,-0.879271545,9.601188607
11.22704929,9.965227203,-0.653840332,-1.274599457,10.06766429
11.23708229,10.50380722,0.523162079,-1.823058929,10.67366894
11.24711429,11.00062408,1.476379852,-2.489772491,11.37507779
11.25714629,11.36257141,2.164798279,-3.260370026,12.01767005
11.26717829,11.72017776,2.568957825,-4.080813904,12.67340338
11.27721129,11.96536789,2.687960358,-5.10857666,13.28505608
11.28724329,11.98348022,2.605332184,-6.013295288,13.65837744
11.29727529,11.70371201,2.345622253,-6.651717682,13.66470514
11.30730729,11.35493729,2.022294617,-6.713539124,13.34525698
11.31734029,11.39355698,1.753154297,-6.045178986,13.01656174
11.32737229,11.46540756,1.521735535,-4.961881714,12.58536927
11.33740429,11.60521683,1.185983734,-3.808829498,12.27170718
11.34743629,11.82870209,0.936302948,-2.671045532,12.16262063
11.35746929,11.81642761,0.790057068,-1.623523865,11.95357609
11.36750129,11.61913788,0.70084259,-0.790655823,11.66707684
11.37753329,11.42005188,0.645308075,-0.265398102,11.44134798
11.38756629,11.29551086,0.656534729,-0.047301636,11.3146737
11.39759829,11.07022934,0.645308075,-0.040116577,11.08909417
11.40763029,10.83940933,0.60264679,-0.154927826,10.85725474
11.41766229,10.63747925,0.528401184,-0.413440247,10.65861649
11.42769529,10.39513321,0.478105774,-0.69156189,10.42907654
11.43772729,10.16745667,0.496367798,-0.902323608,10.21947865
11.44775929,10.06417145,0.601299591,-1.050964508,10.13674674
11.45779129,9.900561676,0.743653564,-1.206940155,10.00154221
11.46782429,9.76673996,0.952768707,-1.331331482,9.903000614
11.47785629,9.700876923,1.211730194,-1.365310822,9.871138575
11.48788817,9.821526031,1.496138763,-1.292113037,10.01850093
11.49792017,9.98438736,1.732048187,-1.089135132,10.19186917
11.50795317,10.0382753,1.913919983,-0.878523102,10.25679597
11.51798517,10.05638763,2.007325745,-0.706381073,10.27906918
11.52801717,10.03917343,2.000739441,-0.45984375,10.24692236
11.53804917,9.988279266,1.957479401,-0.118254089,10.1789701
11.54808217,10.02121078,1.957180023,0.130229187,10.21137497
11.55811417,10.07045837,1.949994965,0.1778302,10.25905628
11.56814617,10.23062531,1.961221619,0.264050903,10.42025946
11.57817817,10.43031006,1.98217804,0.320932617,10.62183579
11.58821117,10.64496368,1.998045044,0.360151062,10.836842
11.59824317,10.87787933,2.039209442,0.342038727,11.0726521
11.60827517,11.26557312,2.068847809,0.2176474,11.4560307
11.61830717,11.74562485,2.08396637,0.059127045,11.92921267
11.62834017,12.23136475,2.017354889,0.063767395,12.39677662
11.63837217,12.77952484,1.909429321,0.053289185,12.92149431
11.64840417,13.31541046,1.736089783,0.114960938,13.42860304
11.65843617,13.90698029,1.662891998,0.155077515,14.00690399
11.66846917,14.47684525,1.732048187,0.27033783,14.58259654
11.67850117,14.90735001,1.884730682,0.44577301,15.03263142
11.68853317,15.30177979,2.116448822,0.550854492,15.4572721
11.69856517,15.55819656,2.386187897,0.734073486,15.75722808
11.70859817,15.70713684,2.746039581,0.889899445,15.97018479
11.71863017,15.86266342,3.129691772,0.86355423,16.19150355
11.72866217,15.84694611,3.476520538,0.934806061,16.25071562
11.73869417,15.38755142,3.666325836,0.952319641,15.84694282
11.74872717,14.97351242,3.665577393,0.634530487,15.42871222
11.75875917,14.65108292,3.557352448,0.124690704,15.07728539
11.76879117,14.24018738,3.508404236,-0.2866539,14.6688107
11.77882317,13.72840164,3.340453491,-0.623752899,14.14272636
11.78885617,13.28592178,3.058140564,-0.949325867,13.66635141
11.79888817,12.97771271,2.718047791,-1.276246033,13.32057112
11.80892017,12.81395325,2.369572449,-1.630110168,13.13276553
11.81895217,12.62295044,1.973047028,-1.909129944,12.91807143
11.82898517,12.46173569,1.558708649,-2.228415985,12.75500948
11.83901717,12.32671646,1.159638519,-2.633623352,12.65814647
11.84904917,12.24977646,0.798589325,-2.970273285,12.6300155
11.85908117,12.19454132,0.473315735,-3.146905975,12.60293153
11.86911417,11.98497711,0.23875351,-3.228186951,12.41442188
11.87914617,11.67272644,0.114811249,-3.292253723,12.12867094
11.88917817,11.3308374,0.094303894,-3.45765976,11.84703256
11.89921017,11.04583008,0.105231171,-3.703598328,11.65066849
11.90924317,10.8066275,0.175734558,-3.81212265,11.46064395
11.91927517,10.45979874,0.239801331,-3.72560257,11.10607981
11.92930717,10.33465897,0.360450439,-3.521876221,10.92422595
11.93933917,10.25472519,0.473315735,-3.252137146,10.7684638
11.94937217,10.14171021,0.52885025,-3.168161774,10.63819616
11.95940417,10.2187999,0.436941376,-3.003504181,10.66001062
11.96943617,10.23751099,0.282462616,-2.81759079,10.62192234
11.97946817,10.1324295,0.07020401,-2.672991486,10.47931008
11.98950117,10.07030869,-0.224832458,-2.550396423,10.39067796
11.99953317,9.927505646,-0.49606842,-2.51447113,10.2530004
12.00956517,9.708061981,-0.721649323,-2.514920197,10.05445517
12.01959717,9.557624817,-0.866098938,-2.449655914,9.904500674
12.02963017,9.45194458,-0.917442169,-2.251468048,9.75961397
12.03966217,9.216035156,-0.935853882,-1.98681839,9.474100158
12.04969417,8.988807678,-0.881816254,-1.708547058,9.192137751
12.05972617,8.821455688,-0.745599518,-1.506916351,8.980244763
12.06975917,8.714727631,-0.642463989,-1.376986542,8.846204248
12.07979117,8.654403076,-0.596060486,-1.261277161,8.766116631
12.08982317,8.628656616,-0.56746994,-1.147214355,8.723063562
12.09985517,8.518036652,-0.575553131,-0.983155518,8.593881811
12.10988817,8.413404236,-0.631536713,-0.933309174,8.488537888
12.11992017,8.316855011,-0.799936523,-1.069974976,8.423468535
12.12995217,8.281079407,-1.037043457,-1.192120972,8.430473752
12.13998417,8.175997925,-1.209484863,-1.365310822,8.376984502
12.15001717,8.152646484,-1.406325531,-1.530118103,8.413361849
12.16004917,8.222401428,-1.595831451,-1.682950287,8.54323621
12.17008117,8.287815399,-1.8592836,-1.821262665,8.686876153
12.18011317,8.277337189,-2.140848083,-2.022743683,8.785728966
12.19014617,8.223299561,-2.45833786,-2.156715088,8.849717547
12.20017817,8.169710999,-2.599644012,-2.234104156,8.859658468
12.21021017,8.121361542,-2.615361328,-2.685565338,8.944768826
12.22024217,8.208031311,-2.599494324,-3.307971039,9.223438683
12.23027517,8.399782562,-2.622097321,-3.78637619,9.579581729
12.24030717,8.611741791,-2.760559387,-3.926634521,9.859069097
12.25033917,8.924142151,-3.005150757,-3.96420639,10.21695534
12.26037117,9.250313873,-3.32772995,-3.936064911,10.58936733
12.27040417,9.505982208,-3.675007782,-3.662284241,10.82966785
12.28043617,9.572743378,-3.969445496,-3.085234222,10.81261224
12.29046817,9.549242249,-4.052522736,-2.25356369,10.61553189
12.30050017,9.647737427,-3.689527588,-1.507964172,10.43864968
12.31053317,10.15278717,-3.037184143,-0.940494232,10.63898981
12.32056517,10.77968353,-2.116748199,-0.775237885,11.01286492
12.33059717,11.12097382,-1.115630035,-1.069376221,11.22783392
12.34062917,11.61898819,-0.158670044,-1.627116394,11.73343814
12.35066217,12.15113159,0.874481506,-2.476001129,12.43162493
12.36069417,12.62295044,1.938169556,-3.595972137,13.26749391
12.37072617,12.76231064,2.842588806,-4.558769989,13.8469949
12.38075817,12.44287491,3.438499603,-5.367687836,13.98071844
12.39079117,11.60731247,3.725901947,-5.936355286,13.55921687
12.40082317,10.83761307,3.567231903,-6.054309998,12.91641088
12.41085517,10.32747391,3.153641968,-5.992937622,12.34979661
12.42088717,10.300979,2.640958099,-5.324876862,11.89281891
12.43092017,10.24185196,2.102228394,-4.27780426,11.29665902
12.44095217,9.975555725,1.531914368,-3.208877106,10.59034305
12.45098417,9.711504822,1.059796143,-2.167342987,10.00669123
12.46101617,9.329948273,0.676593018,-1.435215454,9.463908087
12.47104917,8.788224792,0.407752075,-1.122964783,8.86905895
12.48108117,8.261320496,0.28201355,-1.130149841,8.343032221
12.49111333,7.768994293,0.227826233,-1.348545685,7.88845692
12.50114533,7.393574982,0.23635849,-1.510209503,7.549937026
12.51117833,7.159312134,0.258512421,-1.595083008,7.339405201
12.52121033,7.040908356,0.317789154,-1.574126587,7.221721051
12.53124233,6.954388275,0.368982697,-1.559906158,7.136733968
12.54127433,6.901697845,0.411793671,-1.604064331,7.097607312
12.55130733,6.882986755,0.472417603,-1.619931335,7.086809056
12.56133933,6.973847809,0.576600952,-1.661245422,7.192131692
12.57137133,7.037615204,0.634979553,-1.763482819,7.282931995
12.58140333,7.140451355,0.660127258,-1.768272858,7.38570257
12.59143533,7.296427002,0.657133484,-1.642983398,7.507933528
12.60146833,7.44057724,0.627944183,-1.378932495,7.593283768
12.61150033,7.617958374,0.603694611,-1.136436768,7.725880241
12.62153233,7.83725235,0.591569824,-0.911604309,7.912237463
12.63156433,8.127798157,0.620310059,-0.688568115,8.180465359
12.64159733,8.361162872,0.702489166,-0.496517487,8.405299829
12.65162933,8.522377625,0.807570648,-0.41418869,8.570568417
12.66166133,8.803493042,0.976419525,-0.41418869,8.867154961
12.67169333,9.142088928,1.17011673,-0.459394684,9.22810959
12.68172633,9.481133881,1.403331757,-0.544567566,9.599885078
12.69175833,9.893825684,1.583257599,-0.809516602,10.05235338
12.70179033,10.47791107,1.567240906,-1.112336884,10.6527066
12.71182233,11.15899475,1.439855804,-1.198557587,11.3151619
12.72185533,11.85893921,1.261277161,-1.034049683,11.97056882
12.73188733,12.61307098,1.041534119,-0.657732239,12.67308031
12.74191933,13.32528992,0.923280029,-0.182470551,13.35848393
12.75195133,13.86357056,0.855920105,0.188009033,13.89123951
12.76198433,14.36472839,0.960103455,0.451012115,14.40384089
12.77201633,14.94761627,1.080902252,0.40954834,14.99224172
12.78204833,15.54382645,1.203796692,0.370180206,15.59476516
12.79208033,15.86775284,1.306183777,0.521216125,15.92995174
12.80211333,15.95726669,1.424587555,0.86819458,16.04423796
12.81214533,15.95576981,1.60541153,1.172511749,16.07913928
12.82217733,15.83317474,1.793570251,1.378932495,15.99399173
12.83220933,15.64501602,2.031425629,1.604812775,15.85776278
12.84224233,15.29848663,2.399510193,1.657203827,15.57394192
12.85227433,15.0919162,2.8970755,1.235830078,15.4170768
12.86230633,15.05434433,3.485352173,0.56282959,15.46278565
12.87233833,14.97725464,4.158652039,-0.034578094,15.54392933
12.88237133,15.0256041,4.943320313,-0.629590759,15.83040046
12.89240333,14.59674591,5.440436554,-1.230441284,15.62617441
12.90243533,13.91656036,5.482050018,-2.000589752,15.09058926
12.91246733,13.38845856,5.245990906,-2.907553711,14.67055254
12.92250033,12.85856049,4.810696106,-3.578608246,14.18773455
12.93253233,12.5332869,4.366869049,-3.923491058,13.84003641
12.94256433,12.36877899,3.983516235,-3.927682343,13.57504269
12.95259633,12.18196747,3.666026459,-3.796405334,13.27602255
12.96262833,12.03676941,3.451821899,-3.701203308,13.05748054
12.97266133,11.92764633,3.31365921,-3.592229919,12.89004268
12.98269333,11.74382858,3.283422089,-3.6588414,12.73128001
12.99272533,11.39744888,3.205583954,-3.928131409,12.47428659
13.00275733,11.14073273,3.036735077,-4.177363129,12.27957851
13.01279033,10.91634933,2.913690948,-4.399201813,12.12473729
13.02282233,10.66532135,2.762056274,-4.498445435,11.90016999
13.03285433,10.39857605,2.509681091,-4.554279327,11.62627813
13.04288633,10.24754013,2.201172638,-4.627626801,11.45740675
13.05291933,10.25352768,1.870210876,-4.54350174,11.3699572
13.06295133,10.1803299,1.506766663,-4.386927338,11.18725141
13.07298333,10.07704468,1.148561554,-4.191433868,10.97424899
13.08301533,9.999206543,0.778680725,-3.925437012,10.77030784
13.09304833,9.98079483,0.42361908,-3.615731049,10.62399311
13.10308033,9.994117126,0.119900665,-3.284918976,10.52081014
13.11311233,9.782157898,-0.254021759,-2.899919586,10.20610963
13.12314433,9.360335083,-0.589324493,-2.628683624,9.7402851
13.13317733,8.973539429,-0.790206757,-2.506986694,9.350605268
13.14320933,8.705596619,-0.818946991,-2.36942276,9.059373647
13.15324133,8.56967926,-0.791703644,-2.254012756,8.896447088
13.16327333,8.385113068,-0.730780334,-2.099983063,8.674911522
13.17330633,8.18123703,-0.696052551,-1.984123993,8.447122381
13.18333833,8.090675354,-0.660726013,-1.831441498,8.321644339
13.19337033,8.0396315,-0.67509613,-1.595382385,8.224151895
13.20340233,7.887847137,-0.696052551,-1.454225922,8.05092508
13.21343433,7.739056549,-0.654738464,-1.468596039,7.904331284
13.22346733,7.650141449,-0.622555389,-1.640887756,7.848869475
13.23349933,7.690108337,-0.687220917,-1.919159088,7.955703013
13.24353133,7.802973633,-0.83421524,-2.212998047,8.153506788
13.25356333,7.865693207,-1.097368011,-2.456691284,8.313162951
13.26359633,7.910599823,-1.369502106,-2.600242767,8.438861773
13.27362833,7.983797607,-1.630858612,-2.64320343,8.56663577
13.28366033,8.131240997,-1.763782196,-2.694995728,8.74591389
13.29369233,8.375083923,-1.808539124,-2.69125351,8.980851292
13.30372533,8.514593811,-1.666634216,-2.777623901,9.109949062
13.31375733,8.707991638,-1.394500122,-3.167563019,9.370549847
13.32378933,9.195827179,-1.334774323,-3.865112457,10.06399296
13.33382133,9.687704315,-1.616488495,-4.518803101,10.8113011
13.34385433,10.18197647,-2.108215942,-4.820575562,11.46102823
13.35388633,10.91275681,-2.634222107,-4.925207977,12.25908075
13.36391833,11.74846893,-3.253184967,-5.108426971,13.21763068
13.37395033,12.40006393,-3.997886353,-5.055736542,13.975162
13.38398233,12.63582367,-4.592749329,-4.392914886,14.14408312
13.39401533,12.461586,-4.692442017,-3.38386322,13.73901991
13.40404733,11.98108521,-4.166884918,-2.143841858,12.86488984
13.41407933,11.72676407,-2.875520325,-1.041534119,12.11901011
13.42411133,11.70446045,-1.010847931,-0.379909973,11.75417115
13.43414433,11.60012741,0.90561676,-0.11705658,11.63601306
13.44417633,11.21527771,2.644700317,-0.395776978,11.52968054
13.45420833,10.79270645,4.135150909,-1.037492523,11.60423958
13.46424033,10.38270905,5.319787445,-2.050585785,11.84507018
13.47427333,9.77721817,5.982758789,-3.145409088,11.88616827
13.48430617,8.90902359,6.046825562,-4.19128418,11.55429201
13.49433817,7.743098145,5.409001923,-5.018913116,10.69590387
13.50437017,6.588099976,4.348307648,-5.591622162,9.673524647
13.51440317,5.816753998,3.167563019,-6.209986267,9.079207674
13.52443517,5.127437439,1.950593719,-6.45068573,8.467985412
13.53446717,4.621339874,0.872535553,-6.209237823,7.789270497
13.54449917,4.483925629,-0.066761169,-5.731431427,7.277317658
13.55453217,4.511468353,-0.76880127,-4.969066772,6.755444225
13.56456417,4.750221863,-1.146016846,-4.07078476,6.359972556
13.57459617,5.16006958,-1.248852997,-3.208727417,6.203376783
13.58462817,5.749992828,-1.212029572,-2.551743622,6.406467726
13.59466017,6.407575378,-1.208586731,-2.137854309,6.862078779
13.60469317,7.084018707,-1.213227081,-1.976190491,7.453896287
13.61472517,7.714208221,-1.299298096,-1.952240295,8.062780302
13.62475717,8.247848511,-1.447789307,-1.888023834,8.584155924
13.63478917,8.94764328,-1.5925383,-1.861828308,9.277009386
13.64482217,9.770332489,-1.694027252,-1.795366516,10.07732436
13.65485417,10.38884628,-1.717229004,-1.355281677,10.61667514
13.66488617,10.82099762,-1.594334564,-0.684077454,10.9591904
13.67491817,11.38098312,-1.302441559,-0.168699188,11.45650864
13.68495117,11.92285629,-0.891246643,0.281564484,11.95943566
13.69498317,12.29617996,-0.468525696,0.801433411,12.33117405
13.70501517,12.63342865,-0.04685257,1.195713501,12.68997421
13.71504717,12.96528854,0.51013916,1.676363983,13.08316266
13.72508017,13.27065353,1.074315948,2.048190765,13.47068986
13.73511217,13.34654572,1.445394287,2.343077545,13.6275258
13.74514417,13.03070251,1.739832001,2.656376038,13.41203031
13.75517617,12.49481689,2.137554932,2.964435425,13.01835119
13.76520817,12.26459564,2.690355377,2.770139465,12.85814882
13.77524117,12.26489502,3.283571777,2.146685944,12.87702427
13.78527317,11.9785405,3.855682068,1.59478363,12.68444131
13.79530517,11.56195679,4.249213715,1.03554657,12.36151361
13.80533717,11.10450806,4.383634186,0.417032776,11.94572159
13.81537017,10.72280182,4.359234924,-0.211210785,11.57696065
13.82540217,10.43031006,4.188739471,-0.824635162,11.27017877
13.83543417,10.36699173,3.903881836,-1.366059265,11.16158272
13.84546617,10.52820648,3.655997314,-1.719174957,11.27674646
13.85549917,10.71846085,3.478316803,-2.022593994,11.44879807
13.86553117,10.81950073,3.385509796,-2.251168671,11.55815872
13.87556317,10.94374237,3.500321045,-2.309397583,11.71968693
13.88559517,11.23818008,3.762725372,-2.361339569,12.08431704
13.89562817,11.69922134,3.998784485,-2.478695526,12.60975769
13.90566017,12.35156479,4.026476898,-2.430645447,13.21672071
13.91569217,12.86005737,3.935466156,-2.079026642,13.6085018
13.92572417,13.0109436,3.884871368,-1.533411255,13.66485379
13.93575617,13.28786774,3.86361557,-1.278042297,13.89706251
13.94578917,13.85324203,3.70913681,-1.403182068,14.40968184
13.95582117,14.40409653,3.510050812,-1.362167358,14.88804733
13.96585317,14.79298782,3.456013184,-0.887654114,15.21724172
13.97588517,15.07051071,3.615281982,-0.061821442,15.49820566
13.98591817,15.35372177,3.959865417,0.592318268,15.86720351
13.99595017,15.33800446,4.385280762,1.062041473,15.98790168
14.00598217,14.80750763,4.822671204,1.510808258,15.64618105
14.01601417,14.57129883,5.015919342,1.380130005,15.4721348
14.02604617,14.3115889,4.947361908,0.85651886,15.16679238
14.03607917,14.00667297,4.879552917,0.259410553,14.83456161
14.04611117,13.81671799,4.886588287,-0.495170288,14.66375241
14.05614317,13.75848907,4.91083786,-1.357976074,14.67162054
14.06617517,13.79112122,4.953349457,-2.344275055,14.84002428
14.07620817,13.70699615,4.906496887,-3.311413879,14.9305364
14.08624017,13.50611389,4.816833344,-4.293671265,14.96838698
14.09627217,13.26197159,4.728067932,-4.910388794,14.91128549
14.10630417,12.7163562,4.568649445,-5.573360138,14.61645018
14.11633717,12.16625015,4.34336792,-6.076613617,14.27612415
14.12636917,11.59967834,4.127965851,-6.450985107,13.89992261
14.13640117,11.12621292,3.796854401,-6.6355513,13.49960216
14.14643317,10.6726561,3.421734467,-6.715934143,13.06589554
14.15646517,10.5545517,3.053500214,-6.539301453,12.78612093
14.16649817,10.57401123,2.671494598,-6.045478363,12.46973959
14.17653017,10.5584436,2.23021225,-5.627397766,12.17054574
14.18656217,10.59137512,1.739083557,-5.174589386,11.91545274
14.19659417,10.72220306,1.214873657,-4.789589996,11.80600393
14.20662717,10.65364563,0.607586517,-4.44515625,11.55978982
14.21665917,10.47342041,0.004340973,-4.127217407,11.25728553
14.22669117,10.19919067,-0.530496826,-3.665577393,10.85086978
14.23672317,9.774972839,-0.966839447,-3.328478394,10.37128926
14.24675617,9.391620026,-1.27654541,-3.052602081,9.957433121
14.25678817,9.081165619,-1.482966156,-2.879412231,9.641461114
14.26682017,8.837023315,-1.626667328,-2.559976501,9.343045936
14.27685217,8.244106293,-1.816772003,-2.110311584,8.701687426
14.28688417,7.562124481,-1.868115234,-1.874252472,8.011766567
14.29691717,7.187154236,-1.750759277,-1.889221344,7.634756142
14.30694917,6.926995239,-1.544637909,-1.948947144,7.359861703
14.31698117,6.671476593,-1.336570587,-1.924547882,7.070990413
14.32701317,6.410718842,-1.205892334,-1.895807648,6.793053733
14.33704617,6.057004395,-1.19227066,-1.942660217,6.471687592
14.34707817,5.770350494,-1.191821594,-1.995350647,6.220836579
14.35711017,5.554649048,-1.171164551,-2.018851776,6.025073854
14.36714217,5.412145386,-1.178948364,-2.039059753,5.902457251
14.37717417,5.252128143,-1.290765839,-2.135608978,5.814787373
14.38720717,5.107079773,-1.477427673,-2.227218475,5.764161559
14.39723917,4.992118835,-1.682501221,-2.312840424,5.753372198
14.40727117,4.897665253,-1.825004883,-2.449655914,5.772225034
14.41730317,4.924459534,-1.844913483,-2.61985199,5.875170798
14.42733617,5.205574951,-1.773362274,-2.863395538,6.200149864
14.43736817,5.706433411,-1.605261841,-2.978356476,6.634067768
14.44740017,6.160588989,-1.320104828,-2.93225235,6.949362366
14.45743217,6.556515656,-1.023272095,-2.861599274,7.226599043
14.46746517,7.122638397,-0.747545471,-2.968327332,7.752533077
14.47749717,7.920778656,-0.493523712,-3.079845428,8.512799072
14.48752767,8.725954285,-0.350121918,-3.199746094,9.300711725
14.49755967,9.433682556,-0.343535614,-3.351829834,10.01734229
14.50759167,10.12240036,-0.491278381,-3.511248322,10.72535353
14.51762467,10.73118439,-0.852776642,-3.647465057,11.366158
14.52765667,11.25823837,-1.328786774,-3.656596069,11.91151965
14.53768867,11.8550473,-1.714085541,-3.541335754,12.49084844
14.54772067,12.39886642,-1.880240021,-3.01413208,12.89775885
14.55775367,12.78910492,-1.794318695,-2.341281281,13.12487647
14.56778567,13.05704773,-1.466799774,-1.607507172,13.23714759
14.57781767,13.37603439,-0.843495941,-0.963845673,13.43721623
14.58784967,13.4980307,0.06316864,-0.320483551,13.50198255
14.59788167,13.90772873,1.160237274,-0.133522339,13.9566793
14.60791467,14.16893555,2.205214233,-0.394878845,14.3449515
14.61794667,13.9333255,3.095413055,-1.119072876,14.31682456
14.62797867,13.73917923,3.775748291,-2.275118866,14.4290501
14.63801067,13.13129333,4.23693924,-3.332819366,14.1947245
14.64804367,12.0873642,4.396956482,-4.049229584,13.48457859
14.65807567,11.24716141,4.227209473,-4.480183411,12.82341542
14.66810767,10.40306671,4.086502075,-5.076243896,12.27564859
14.67813967,9.779014435,3.743864594,-5.388045502,11.77610631
14.68817167,9.495653687,3.218008118,-4.93538681,11.17501938
14.69820467,9.264085236,2.600841522,-4.01225647,10.42525078
14.70823667,8.977131958,2.106719055,-3.098855896,9.727798889
14.71826867,8.685987396,1.731150055,-2.398911438,9.175948651
14.72830067,8.399034119,1.373244324,-1.791923676,8.697158419
14.73833367,7.998916168,1.189576263,-1.376836853,8.203257357
14.74836567,7.589816895,1.14781311,-1.23208786,7.774370452
14.75839767,7.375163269,1.163380737,-1.157393188,7.555530887
14.76842967,7.335196381,1.170565796,-1.057999878,7.502979006
14.77846167,7.224875793,1.156944122,-1.084494781,7.396856012
14.78849467,7.095544739,1.115031281,-1.113384705,7.268402534
14.79852667,7.035369873,1.09287735,-1.243164825,7.227466287
14.80855867,7.206913147,1.137185211,-1.275198212,7.406680619
14.81859067,7.511080627,1.310075684,-1.133143616,7.708219311
14.82862367,7.819888458,1.549727325,-0.761017456,8.008211901
14.83865567,8.087531891,1.797312469,-0.030536499,8.284892074
14.84868767,8.39648941,2.124981079,0.823437653,8.700266006
14.85871967,8.487649841,2.51566864,2.005379791,9.076912286
14.86875167,8.486751709,2.86668869,2.211052094,9.22667925
14.87878467,9.035061493,2.934198303,0.35102005,9.506054436
14.88881667,9.998158722,3.141217804,-0.313897247,10.48470117
14.89884867,10.44273422,2.736758881,-0.063917084,10.79558394
14.90888067,10.22194336,1.407073975,-0.203726349,10.32034339
14.91891367,9.690548401,0.514180756,-0.254620514,9.707519857
14.92894567,9.300459595,0.487087097,0.278421021,9.317366622
14.93897767,9.122629395,0.756227417,0.661624146,9.177798946
14.94900967,9.510173492,1.196312256,0.375419312,9.592471138
14.95904167,9.959838409,1.895657959,-0.055534515,10.13878614
14.96907467,10.24095383,2.499202881,-0.239501953,10.54421697
14.97910667,10.56712555,3.001408539,-0.522413635,10.99752298
14.98913867,10.77908478,3.263513489,-0.88570816,11.29706457
14.99917067,10.89150101,3.146007843,-1.146914978,11.39462915
15.00920367,10.92847412,2.749033356,-1.368903351,11.35176759
15.01923567,11.24865829,2.300116882,-1.486109619,11.57719193
15.02926767,11.83663559,1.859433289,-1.388811951,12.06201612
15.03929967,12.32866241,1.183888092,-1.058748322,12.43054528
15.04933167,12.79135025,0.5242099,-0.71730835,12.82216708
15.05936467,13.27619202,0.145347748,-0.406853943,13.28321989
15.06939667,13.74157425,-0.048499146,-0.054037628,13.74176608
15.07942867,14.1032222,-0.062420197,0.339494019,14.10744587
15.08946067,14.50453766,0.114511871,0.657732239,14.51989454
15.09949367,14.89028549,0.402962036,0.916843414,14.9239265
15.10952567,15.15733017,0.812360687,1.157093811,15.22312234
15.11955767,15.36150558,1.093027039,1.126856689,15.44151443
15.12958967,15.35881119,1.351539459,1.039887543,15.45319081
15.13962167,15.10688507,1.629810791,1.000968475,15.22748166
15.14965467,14.69628891,1.9681073,0.708776093,14.84441705
15.15968667,14.25276123,2.190245361,0.203726349,14.42150761
15.16971867,13.77734985,2.258054352,-0.288450165,13.9641463
15.17975067,13.47063766,2.141147461,-0.669857025,13.65618175
15.18978367,13.29325653,1.829645233,-0.913250885,13.44962074
15.19981567,13.18069061,1.461111603,-1.034947815,13.3017506
15.20984767,13.01708084,1.061592407,-0.971030731,13.09634578
15.21987967,12.69225632,0.589324493,-0.866398315,12.7354356
15.22991167,12.35889954,0.099243622,-0.566422119,12.37227065
15.23994467,11.84666473,-0.446371765,-0.281863861,11.85842149
15.24997667,11.22366028,-0.957558746,-0.002095642,11.26443399
15.26000867,10.70813232,-1.154399414,0.414338379,10.77814512
15.27004067,10.33525772,-1.069525909,0.767454071,10.41875346
15.28007267,10.13452515,-0.82613205,1.261277161,10.24606823
15.29010567,10.10788055,-0.379460907,1.852098541,10.28316629
15.30013767,9.837393036,-0.158220978,1.928589478,10.02590609
15.31016967,9.320218506,-0.178428955,1.483265533,9.439194167
15.32020167,8.777746582,-0.182470551,1.171613617,8.857471932
15.33023467,8.244255981,-0.219144287,0.977317657,8.304873913
15.34026667,7.929610291,-0.384550323,0.724792786,7.971945992
15.35029867,7.669301605,-0.598605194,0.318537598,7.699219538
15.36033067,7.663463745,-0.575253754,0.245339813,7.688939139
15.37036267,7.924670563,-0.136965179,0.851429443,7.971455017
15.38039567,7.710016937,0.06436615,1.018332367,7.777242762
15.39042767,7.484585724,0.230370941,0.909508667,7.543162483
15.40045967,7.760162659,0.551004181,0.9687854,7.839787959
15.41049167,8.042625275,0.7219487,1.563498688,8.22493522
15.42052467,8.24096283,0.357157288,1.859433289,8.455679857
15.43055667,8.174351349,-0.149539032,2.050286407,8.428882266
15.44058867,7.852071533,-0.403261414,1.920356598,8.093541659
15.45062067,7.523504791,-0.684676208,1.37129837,7.678044352
15.46065267,7.396718445,-0.807570648,0.846789093,7.488702549
15.47068567,7.188501434,-1.131796417,0.569565582,7.299309622
15.48071767,6.9620224,-1.46500351,0.64710434,7.143859965
15.49075042,7.312294006,-1.459614716,1.038390656,7.528504095
15.50078242,7.614665222,-1.304237823,1.484163666,7.866823027
15.51081442,7.656877441,-1.357527008,1.864822083,7.996762666
15.52084742,7.577392731,-2.023641815,1.589394836,8.002386065
15.53087942,7.454498291,-2.586621094,1.27654541,7.993104631
15.54091142,7.912695465,-2.587968292,1.640289001,8.485215225
15.55094342,8.811276855,-2.358794861,2.361339569,9.42223103
15.56097642,9.56196579,-2.32960556,2.465073853,10.1456809
15.57100842,9.638606415,-2.2746698,2.321971436,10.17194218
15.58104042,9.927505646,-2.215842133,2.004631348,10.36744286
15.59107242,10.12015503,-2.153571625,1.381028137,10.43851748
15.60110442,10.1523381,-2.250270538,1.034798126,10.45009539
15.61113742,10.20787262,-2.430795135,1.19466568,10.56109154
15.62116942,10.27014313,-2.208208008,1.301842804,10.58521692
15.63120142,10.67205734,-1.874701538,1.547332306,10.94538949
15.64123342,11.18174744,-1.650916901,1.289867706,11.37632458
15.65126542,11.10884903,-1.466500397,0.876277771,11.23944006
15.66129842,10.38645126,-1.357377319,0.290994873,10.47881296
15.67133042,9.71644455,-1.240021362,-0.17318985,9.796782247
15.68136242,9.554181976,-1.115180969,0.060324554,9.619233903
15.69139442,9.552236023,-0.809516602,0.52301239,9.600732895
15.70142742,10.12494507,-0.388591919,1.602268066,10.25830294
15.71145942,10.81695602,0.330812073,2.480491791,11.10264895
15.72149142,11.54698792,0.965192871,3.108286285,11.99691505
15.73152342,11.73814041,1.763782196,2.498304749,12.12997917
15.74155542,11.96207474,2.327060852,1.678459625,12.30136866
15.75158842,12.72788223,2.745291138,1.359472961,13.09136266
15.76162042,13.13473618,3.187621307,1.638043671,13.61489666
15.77165242,13.08219543,3.533551941,2.082619171,13.71011048
15.78168442,13.05046143,3.711980896,2.534080353,13.80271382
15.79171642,12.5412204,3.955973511,2.787952423,13.44264164
15.80174942,12.10293182,4.01569931,3.184028778,13.14324309
15.81178142,11.74787018,3.69042572,3.573818207,12.82200734
15.82181342,10.93565918,3.028951263,3.743714905,11.94899949
15.83184542,10.22329056,2.235002289,4.135450287,11.25223774
15.84187842,9.572144623,1.657503204,4.699627075,10.79165252
15.85191042,8.806786194,1.453477478,5.602100372,10.53829248
15.86194242,8.124355316,1.035995636,4.981191559,9.585963989
15.87197442,7.249275055,0.227526855,4.021088104,8.292943195
15.88200642,6.838080139,0.042212219,4.425397339,8.145260184
15.89203942,6.15819397,-0.228574677,3.3721875,7.024759632
15.90207142,5.539380798,-0.101039886,3.610042877,6.612666502
15.91210342,5.796695709,0.393082581,3.394042053,6.728723246
15.92213542,6.540349274,1.085991669,3.474275208,7.485060771
15.93216742,6.765181732,1.909728699,3.350033569,7.787006645
15.94220042,7.048093414,3.012036438,2.740950165,8.140073224
15.95223242,7.043003998,4.10700943,1.711091766,8.330622234
15.96226442,5.615123291,4.695136414,-0.864152985,7.370256162
15.97229642,3.937711487,4.17721344,-4.344415741,7.199210513
15.98232842,5.521118774,4.532125397,-4.677323456,8.538165368
15.99236142,6.699318695,5.026846619,-1.335971832,8.481443193
16.00239342,6.694528656,4.389621735,2.669548645,8.438719267
16.01242542,6.716233521,3.228785706,4.027075653,8.470548279
16.02245742,6.473139038,1.968855743,3.515140228,7.624574268
16.03248942,5.921985168,2.03591629,3.896696777,7.375575181
16.04252242,5.624853058,2.658920746,4.357588348,7.595880967
16.05255442,5.490881653,2.694396973,4.284689941,7.467805854
16.06258642,5.314698029,2.73571106,4.528682556,7.49927302
16.07261842,5.11561203,2.806364136,4.826114044,7.57208973
16.08265142,5.210664368,3.250939636,5.583389282,8.300232982
16.09268342,5.384452972,3.417243805,5.91015976,8.694818999
16.10271542,5.657036133,3.154390411,6.174360352,8.948461456
16.11274742,6.38287674,3.047961731,6.575077057,9.657267962
16.12277942,7.230264587,3.14286438,7.000193024,10.54310319
16.13281242,7.735014954,2.99542099,7.383545837,11.1049427
16.14284442,7.829917603,2.696342926,8.051456909,11.55005771
16.15287642,7.967780914,2.493215332,9.100625153,12.3500216
16.16290842,8.745563507,2.273921356,10.1206041,13.56769054
16.17294042,9.674082642,1.909728699,10.42387344,14.3489399
16.18297342,10.10922775,1.555116119,10.05743546,14.34457667
16.19300542,10.30666718,1.509760437,9.317973175,13.97610063
16.20303742,10.62131287,1.885329437,8.944200439,14.01304662
16.21306942,10.7509433,2.571652222,9.001531219,14.25565647
16.22310142,10.82039886,2.940485229,8.945996704,14.34427907
16.23313442,10.86859863,2.711311798,9.540560303,14.71393689
16.24316642,10.91560089,2.178869019,10.41459274,15.24341022
16.25319842,10.40531204,1.457668762,11.32365234,15.44734344
16.26323042,9.673184509,0.812660065,12.70902145,15.99219001
16.27326242,9.338630219,0.941242676,12.04230789,15.26804282
16.28329542,9.629176025,1.031355286,11.21722366,14.8192723
16.29332742,9.97615448,0.99572937,10.50395691,14.52061452
16.30335942,10.29424301,1.149160309,9.892179108,14.32296115
16.31339142,10.00699036,1.414857788,9.104966125,13.60301756
16.32342342,9.037157135,1.606309662,8.585097198,12.56798845
16.33345642,8.301586761,1.799108734,8.265362091,11.85197644
16.34348842,7.815846863,2.102378082,8.315358124,11.60399227
16.35352042,7.783065033,2.486629028,8.446485443,11.75170377
16.36355242,7.77752655,2.555934906,9.18280426,12.30230127
16.37358442,7.654332733,2.286495209,9.788594513,12.63461327
16.38361742,7.985593872,1.891017609,10.407258,13.25355334
16.39364942,8.524473267,1.543141022,10.53134995,13.6366147
16.40368142,8.964408417,1.494641876,10.90632019,14.19656271
16.41371342,8.901389465,1.712289276,10.29873367,13.71971517
16.42374542,8.659342804,2.278561707,8.812474365,12.5632705
16.43377842,8.414302368,2.727328491,7.032076721,11.29995168
16.44381042,8.259524231,2.841391296,3.724105682,9.495378252
16.45384242,7.383994904,3.798950043,4.521796875,9.455265683
16.46387442,6.779402161,4.880600739,5.739065552,10.13496081
16.47390742,6.662046204,4.824916534,5.878725128,10.11049397
16.48393942,5.492977295,3.942651215,6.223757629,9.189801804
16.49397083,3.984564056,3.195854187,7.395970001,8.988359526
16.50400283,3.243006134,2.208058319,8.584797821,9.43882217
16.51403483,2.883753204,1.427880707,7.891289978,8.522167176
16.52406783,2.566113739,1.140029297,7.484735413,7.994114755
16.53409983,2.307152252,1.062340851,7.219936066,7.653691684
16.54413183,2.534230042,1.343905334,6.601721649,7.197995011
16.55416383,2.903961182,1.604962463,6.585106201,7.373772354
16.56419583,2.776725769,1.457519073,6.722969513,7.418415391
16.57422883,2.949316864,1.515448608,6.990762634,7.737300347
16.58426083,2.903811493,1.507664795,7.430398407,8.118866596
16.59429283,2.546504517,1.347198486,7.30136673,7.849177354
16.60432483,2.446063385,1.325194244,7.206763458,7.725076402
16.61435683,2.320624237,1.060245209,7.124734039,7.567777209
16.62438983,2.036365356,0.763412476,6.720724182,7.063831539
16.63442183,1.572929077,0.418379974,6.384822693,6.589014229
16.64445383,1.29405899,0.090411987,5.922434235,6.062836816
16.65448583,1.329684906,0.05269043,5.662724304,5.816982446
16.66451783,1.459914093,0.425415344,5.835914154,6.030772868
16.67455083,1.495689697,0.815653839,6.041287079,6.276904366
16.68458283,1.660646667,1.207089844,6.613696747,6.925012484
16.69461483,2.070344696,1.452729034,7.501650238,7.916533654
16.70464683,2.854563904,1.542542267,8.468489685,9.068808592
16.71467883,3.538791046,1.438807983,9.90131012,10.61268828
16.72471183,3.595972137,1.801204376,10.65918411,11.39269761
16.73474383,3.797303467,2.75786499,12.08616669,12.96536764
16.74477583,3.638783112,2.921474762,11.97419952,12.85135057
16.75480783,2.019151154,1.922302551,11.23713226,11.57779599
16.76483983,1.537901917,2.31792984,10.18781433,10.5607529
16.77487283,0.894839172,1.94700119,9.27291687,9.517275769
16.78490483,0.212707672,1.360071716,8.25144104,8.365483779
16.79493683,-0.444276123,1.255439301,7.558831329,7.675248542
16.80496883,-1.084794159,1.446591797,7.875572662,8.080473436
16.81500083,-1.130449219,1.854493561,8.590635681,8.860930155
16.82503383,-0.334254913,2.097887421,8.650062103,8.90710011
16.83506583,0.930764465,2.31328949,8.055947571,8.433025674
16.84509783,5.203628998,3.455564117,10.1457518,11.91448521
16.85512983,9.962981873,3.977528687,12.92023224,16.79327673
16.86516183,9.807155914,2.433938599,16.26981674,19.15231842
16.87519483,8.985215149,2.044598236,17.15851868,19.47637637
16.88522683,7.62080246,2.227368164,16.88922867,18.66236438
16.89525883,5.88665863,1.060245209,15.65549423,16.75921745
16.90529083,4.121229858,-0.772543488,14.17207901,14.77934987
16.91532283,2.221380615,-2.576442261,8.124355316,8.807822425
16.92535583,6.900500336,0.022902374,-5.65269516,8.920223762
16.93538783,10.25697052,0.953068085,1.92484726,10.4794475
16.94541983,4.466112671,-0.880319366,6.005361786,7.535615088
16.95545183,-2.459235992,0.068108368,2.312690735,3.376539479
16.96548383,-10.50186127,2.217638397,2.414928131,11.00176749
16.97551683,-9.806557159,1.409169617,3.504811707,10.50894987
16.98554883,-2.557282104,-0.207019501,5.08986557,5.699936873
16.99558083,1.857038269,-0.673599243,6.193819885,6.501210029
17.00561283,3.384312286,0.088166656,6.115083618,6.989677437
17.01564483,2.64200592,1.438209229,5.904770966,6.626836442
17.02567783,1.797462158,2.515968018,6.077212372,6.818612431
17.03570983,1.651216278,2.607128448,6.44484787,7.145606903
17.04574183,2.389930115,2.324815521,6.599476318,7.393890778
17.05577383,3.34883606,1.933229828,7.055428162,8.04556692
17.06580583,3.904330902,1.358125763,6.957232361,8.092674929
17.07583883,3.852538605,0.890797577,6.506519623,7.613827659
17.08587083,3.409160614,0.486188965,6.375691681,7.246254219
17.09590283,3.342998199,-0.489631805,6.720873871,7.522334867
17.10593483,3.983067169,-2.142943726,8.548722839,9.67148872
17.11596683,4.390669556,-2.213447113,9.298962708,10.51893696
17.12599883,3.797902222,-1.93772049,10.01237915,10.88239671
17.13603183,3.558849335,-1.348246307,10.3753743,11.05131524
17.14606383,3.546425171,-0.262404327,11.14163086,11.69538053
17.15609583,3.753893738,0.935554504,11.96716415,12.576963
17.16612783,4.215533752,1.426084442,11.50971542,12.34009687
17.17615983,4.272415466,0.814156952,10.53015244,11.39300205
17.18619283,4.026327209,-0.721200256,10.86470673,11.60919002
17.19622483,3.734733582,-2.047442322,11.94620773,12.68274947
17.20625683,3.894601135,-2.896177368,12.82009048,13.7080444
17.21628883,3.960164795,-3.89519989,12.46038849,13.64246197
17.22632083,4.390819244,-4.174369354,10.97412918,12.53539646
17.23635383,5.073699188,-2.931204529,10.90871521,12.38282888
17.24638583,5.821394348,-2.493365021,10.07554779,11.90051111
17.25641783,4.615052948,-3.019520874,4.390519867,7.049318033
17.26644983,3.946393433,-0.604293365,-3.900139618,5.581243646
17.27648183,4.052073669,-0.035476227,3.505260773,5.357929887
17.28651483,3.448828125,-0.845591583,10.57191559,11.15234683
17.29654683,2.237696686,-1.00740509,9.630523224,9.938265897
17.30657883,1.178648987,-1.127455444,7.171137543,7.3542901
17.31661083,0.580941925,-1.194066925,7.414531403,7.532500598
17.32664283,0.666713562,-0.720601501,9.160350952,9.212806471
17.33667583,1.620230713,-0.259260864,7.733518066,7.905672991
17.34670783,2.466271362,-0.186811523,5.978717194,6.470119957
17.35673983,2.356848907,0.925824738,13.80040192,14.03078691
17.36677183,4.766388245,2.837649078,16.91392731,17.80032714
17.37680383,6.133794708,3.376079407,15.76327011,17.24824728
17.38683683,6.409221954,2.49695755,12.78551239,14.51834185
17.39686883,6.023324432,0.418679352,10.20068756,11.85368113
17.40690083,4.817132721,-0.76056839,8.670270081,9.947704016
17.41693283,3.791016541,-0.639320526,9.144034882,9.919370497
17.42696483,3.665727081,0.061372375,9.28698761,9.98446095
17.43699783,3.923191681,0.340392151,7.897277527,8.824641189
17.44702983,4.049828339,0.171842651,7.426955566,8.461105628
17.45706183,4.669539642,0.49606842,7.587870941,8.923366504
17.46709383,5.581143951,0.906065826,8.52761673,10.23183122
17.47712583,5.935008087,0.850980377,9.030870209,10.83997718
17.48715767,6.151457977,1.108744354,8.35442688,10.43389658
17.49719067,6.358926544,1.643432465,7.826624451,10.21728278
17.50722267,6.190526733,1.732347565,7.890840912,10.17786911
17.51725467,5.173541565,1.239721985,8.082891541,9.676547865
17.52728667,4.055815887,0.346978455,7.936196594,8.919263027
17.53731867,3.01293457,-0.313897247,7.14449295,7.760160161
17.54735167,2.923271027,-0.926872559,6.551426239,7.23365689
17.55738367,3.187920685,-1.278191986,6.38287674,7.248291421
17.56741567,3.316203918,-1.403481445,6.985523529,7.859039863
17.57744767,4.399650879,-1.388811951,7.589367828,8.881679488
17.58747967,7.185058594,-0.58977356,8.611442413,11.23075422
17.59751267,8.443042603,1.507365417,6.152954865,10.55537647
17.60754467,8.413553925,3.866459656,5.287454681,10.66276591
17.61757667,6.39215744,5.04076767,4.335733795,9.223210015
17.62760867,4.694238281,4.169130249,3.125949554,7.01349276
17.63764067,4.193080444,2.698887634,1.850451965,5.318842971
17.64767367,4.297413483,1.845063171,1.961970062,5.07162176
17.65770567,4.872667236,1.586401062,2.861299896,5.869121861
17.66773767,5.928721161,1.558409271,3.914659424,7.273440208
17.67776967,6.810387726,1.915566559,4.096980286,8.175330188
17.68780167,7.347321167,2.327509918,3.320993958,8.392224474
17.69783367,7.370522919,1.848356323,3.058140564,8.191047119
17.70786667,6.920109558,1.229393463,1.802551575,7.255929766
17.71789867,6.887327728,1.186582489,0.413589935,7.001022631
17.72793067,7.226971436,0.571212158,-0.59785675,7.274120713
17.73796267,7.778125305,-0.725840607,-0.039368134,7.812018158
17.74799467,8.799301758,-1.511407013,2.086660767,9.168763043
17.75802767,10.85033661,-1.238674164,3.765868835,11.55187804
17.76805967,12.01626205,-1.751507721,4.592300262,12.9825866
17.77809167,13.01947586,-2.22661972,4.350103912,13.90640108
17.78812367,13.91132126,-2.435734863,3.826492767,14.63214647
17.79815567,14.89866806,-2.31209198,3.93381958,15.58175265
17.80818867,15.20687714,-2.815495148,4.300706635,16.05217128
17.81822067,14.76185257,-3.578458557,3.825894012,15.66381569
17.82825267,13.56883347,-4.448000336,4.059857483,14.84521443
17.83828467,12.64705032,-4.934338989,3.548520813,14.03166359
17.84831667,12.3647374,-5.556445313,3.276835785,13.94627076
17.85834867,12.36818024,-5.655539246,3.603306885,14.0691445
17.86838167,12.49361938,-5.186265106,4.549788666,14.27194619
17.87841367,13.01184174,-4.841681671,5.604645081,14.97203905
17.88844567,13.75833939,-4.191882935,6.753506012,15.88941876
17.89847767,14.64614319,-3.089126129,7.216493225,16.61715935
17.90850967,15.34503983,-1.834584961,7.553741913,17.20159778
17.91854267,15.11616577,-0.777782593,7.27442276,16.79347016
17.92857467,15.22019943,-0.439486084,6.337670746,16.49283751
17.93860667,15.48050812,-0.403560791,5.907165985,16.57418483
17.94863867,15.07889328,-0.135019226,4.875211945,15.84799496
17.95867067,13.89410706,-0.450413361,3.487747192,14.33225256
17.96870267,12.69974075,-1.359472961,2.761158142,13.06734771
17.97873567,11.80819473,-2.002086639,2.151625671,12.1684554
17.98876767,11.09298203,-2.461032257,1.674867096,11.48547386
17.99879967,9.8989151,-3.6389328,1.438209229,10.6441908
18.00883167,9.320517883,-3.427871704,1.093326416,9.990881877
18.01886367,9.698182526,-1.620829468,2.734064484,10.2057308
18.02889667,9.014703827,-1.909129944,2.882256317,9.654898431
18.03892867,8.327632599,-2.440075836,2.649190979,9.073127776
18.04896067,7.555837555,-2.245779877,2.527044983,8.277690786
18.05899267,6.766528931,-2.282004547,2.320474548,7.508532523
18.06902467,6.157894592,-2.159858551,2.290836182,6.916110553
18.07905667,5.683531036,-1.949096832,2.341580658,6.44860477
18.08908967,5.404211884,-2.017953644,2.280657349,6.203147663
18.09912167,5.124443665,-2.110910339,2.404599609,6.041354535
18.10915367,4.847968597,-1.99026123,2.601290588,5.850696712
18.11918567,4.685706024,-1.93652298,2.587668915,5.692274818
18.12921767,4.94122467,-1.979483643,2.902763672,6.063010281
18.13925067,5.184319153,-2.274370422,3.224295044,6.515059818
18.14928267,4.979694672,-2.381397858,2.356848907,6.001928986
18.15931467,4.402644653,-2.213896179,1.439107361,5.133775047
18.16934667,3.911665649,-2.417472839,0.498912506,4.625388283
18.17937867,3.77709549,-2.70053421,-0.311951294,4.653670483
18.18941167,3.864214325,-2.743345184,-0.963695984,4.835990602
18.19944367,4.215384064,-2.397264862,-0.920286255,4.935916168
18.20947567,4.912783813,-2.173929291,-0.295635223,5.380410165
18.21950767,6.045927429,-2.324665833,0.650098114,6.509987502
18.22953967,7.098538513,-2.286046143,1.937271423,7.705081217
18.23957167,7.738158417,-1.956132202,3.278332672,8.628615995
18.24960467,7.80566803,-1.957778778,4.072581024,9.019271996
18.25963667,7.576644287,-2.266586609,4.628524933,9.163307076
18.26966867,7.45464798,-2.626438293,4.688849487,9.189954523
18.27970067,7.431895294,-2.979553986,4.34217041,9.108526417
18.28973267,7.410040741,-3.395389252,3.791465607,8.989581937
18.29976567,7.940088501,-3.106789398,3.320993958,9.150199267
18.30979767,9.231752472,-2.339934082,3.505709839,10.14842582
18.31982967,11.07292374,-2.113305359,3.69042572,11.86148986
18.32986167,13.15988388,-2.259251862,4.113745422,13.97174521
18.33989367,14.77158234,-2.595003662,4.784799957,15.74255378
18.34992567,15.54607178,-3.080743561,5.330714722,16.7208806
18.35995867,15.38889862,-3.706292725,5.799390106,16.85786855
18.36999067,14.85271362,-4.327051849,5.905070343,16.55887482
18.38002267,14.48567688,-4.997507629,5.787714386,16.38009631
18.39005467,14.32386337,-5.383854218,5.967939606,16.42483642
18.40008667,14.2080043,-5.292993164,6.499334564,16.49619692
18.41011967,13.88901764,-4.978796539,7.287595367,16.45607098
18.42015167,13.4157019,-4.680017853,7.904312897,16.25920622
18.43018367,12.99836975,-4.479734344,8.41056015,16.11716967
18.44021567,12.56876312,-4.034111023,8.771309967,15.84877714
18.45024767,12.33524872,-3.417692871,8.841064911,15.55645892
18.46027967,12.2213356,-3.209326172,8.332572327,15.13580457
18.47031267,11.98303116,-3.298091583,7.643106079,14.59066532
18.48034467,11.64428558,-3.444936218,6.906487885,13.96984421
18.49037683,11.40538239,-3.69401825,6.389013977,13.58484515
18.50040883,11.16528168,-3.709735565,6.033054199,13.22207986
18.51044083,10.91739716,-3.544479218,5.739963684,12.83355277
18.52047283,10.82863174,-3.387306061,5.419629822,12.57400076
18.53050583,10.65184937,-3.30198349,5.348677368,12.36823914
18.54053783,10.0382753,-3.269800415,5.459896088,11.88566494
18.55056983,9.970166931,-3.0258078,5.181475067,11.63646963
18.56060183,9.787247314,-3.058439941,5.084776154,11.44548878
18.57063383,9.404493256,-3.315455475,5.003794556,11.15682295
18.58066683,8.836274872,-3.467688904,4.910388794,10.68721376
18.59069883,8.258027344,-3.365002441,4.78914093,10.12196265
18.60073083,7.663613434,-3.198548584,4.61595108,9.500983543
18.61076283,7.223229218,-2.934647369,4.518653412,9.011405227
18.62079483,6.929689636,-2.871778107,4.297413483,8.644967935
18.63082683,6.601422272,-2.889291687,3.933520203,8.209711545
18.64085983,6.318809967,-2.806663513,3.378773804,7.695507254
18.65089183,5.984555054,-2.771786041,2.742596741,7.142795946
18.66092383,5.90192688,-2.451601868,2.277513885,6.784553199
18.67095583,5.964047699,-2.12722641,1.977837067,6.633761875
18.68098783,6.014642487,-1.993255005,1.799258423,6.58682933
18.69101983,6.201154633,-1.816622314,1.823058929,6.714013648
18.70105283,6.568490753,-1.550176392,2.123933258,7.07525336
18.71108483,6.946005707,-1.423839111,2.698438568,7.586559418
18.72111683,7.349716187,-1.51874176,3.312761078,8.203614479
18.73114883,7.804320831,-1.654060364,4.148473206,8.991839037
18.74118083,8.178692322,-1.67322052,4.733456726,9.596681071
18.75121383,8.428373108,-1.514400787,4.705464935,9.770991928
18.76124583,8.538544006,-1.168470154,4.608766022,9.773064028
18.77127783,8.559650116,-0.918939056,4.778213654,9.845983182
18.78130983,8.597970428,-0.883013763,5.070555725,10.02074569
18.79134183,8.819809113,-0.827329559,5.424868927,10.38762292
18.80137383,9.287286987,-0.667761383,5.79894104,10.96938111
18.81140683,10.2161055,-0.280067596,6.267766113,11.98883403
18.82143883,10.99658249,-0.505349121,7.105274506,13.10210403
18.83147083,11.75221115,-1.221010895,7.635172577,14.06773595
18.84150283,12.51233047,-1.791923676,7.733967133,14.81835524
18.85153483,12.99043625,-1.86976181,8.117319946,15.43173115
18.86156683,12.87337967,-1.73519165,8.299491119,15.41480934
18.87159983,12.46098724,-1.507664795,8.104147339,14.94076505
18.88163183,11.69607788,-1.521436157,7.443421326,13.94695403
18.89166383,10.64631088,-1.429976349,6.649921417,12.63369394
18.90169583,9.724228363,-1.316512299,5.918093262,11.45939133
18.91172783,9.011111298,-1.377435608,5.019511871,10.40639011
18.92175983,8.363408203,-1.324146423,4.123475189,9.418227442
18.93179283,7.941585388,-0.576451263,3.421435089,8.666446365
18.94182483,7.567962341,0.11466156,3.251239014,8.237581951
18.95185683,7.230863342,0.317789154,3.060834961,7.858440385
18.96188883,6.884184265,-0.028590546,2.809956665,7.435634934
18.97192083,6.686894531,-0.299227753,2.884501648,7.288651828
18.98195383,6.523584137,0.030536499,3.338657227,7.328350056
18.99198583,6.638245697,0.870439911,4.172423401,7.88879513
19.00201783,6.86607193,1.45437561,5.247038727,8.762965683
19.01204983,7.269483032,1.716181183,6.531817017,9.922464157
19.02208183,7.851921844,1.773062897,7.202272797,10.80135001
19.03211383,8.644822998,3.100801849,6.811435547,11.43431638
19.04214683,8.417894897,2.265838165,6.614744568,10.94302622
19.05217883,8.278684387,1.971250763,5.717959442,10.25268282
19.06221083,7.849676514,1.864971771,5.177433472,9.58651962
19.07224283,7.434589691,1.999990997,3.916006622,8.637603587
19.08227483,6.77835434,2.032772827,2.703078918,7.575281418
19.09230683,6.040538635,1.930086365,1.555116119,6.529297552
19.10233983,5.253026276,1.698667603,0.598754883,5.553221055
19.11237183,4.630620575,1.652862854,-0.231568451,4.922217637
19.12240383,4.211342468,1.644330597,-0.374221802,4.53643808
19.13243583,3.983216858,1.500330048,-0.140707397,4.258732835
19.14246783,4.130959625,1.474134521,0.288450165,4.395577722
19.15249983,4.551435242,1.629810791,1.315464478,5.010218834
19.16253283,4.992268524,1.857487335,2.650388489,5.949585142
19.17256483,5.306465149,2.066752167,3.643273773,6.760434948
19.18259683,5.251978455,2.150727539,4.528383179,7.260520701
19.19262883,5.190606079,1.446891174,5.342839508,7.588268547
19.20266083,5.200635223,1.086141357,5.209766235,7.440965932
19.21269283,4.838238831,0.866398315,4.556374969,6.702220071
19.22272583,4.611759796,0.491128693,3.681743774,5.921551573
19.23275783,4.400998077,0.54531601,3.623365173,5.726685674
19.24278983,4.167034607,0.838256836,4.206702118,5.980233662
19.25282183,4.229604492,1.480421448,5.296136627,6.937597927
19.26285383,4.549489288,1.498084717,6.447991333,8.032353505
19.27288683,5.238805847,1.828747101,7.135811005,9.039314208
19.28291883,6.058501282,2.77193573,8.000113678,10.41109429
19.29295083,6.323749695,2.763852539,8.867559814,11.23665022
19.30298283,6.507567444,2.424657898,8.866661682,11.26255252
19.31301483,6.136638794,2.392325134,8.55680603,10.79817043
19.32304683,5.304818573,2.618055725,8.482410736,10.3414993
19.33307983,4.369264069,2.840044098,8.79316452,10.2213532
19.34311183,3.544778595,2.520458679,8.905131683,9.910577054
19.35314383,3.138972473,2.131417694,8.901688843,9.676577589
19.36317583,3.200344849,2.303260345,9.550589447,10.33252022
19.37320783,3.643273773,2.755020905,10.46234344,11.41596314
19.38323983,4.208648071,3.139571228,10.0156723,11.30855065
19.39327283,4.518803101,3.285966797,9.328750763,10.87394823
19.40330483,4.591551819,3.35347641,9.369466095,10.95970105
19.41333683,4.662055206,3.402723999,9.628876648,11.22624402
19.42336883,5.045108643,3.586841125,9.837243347,11.62281838
19.43340083,5.674100647,3.929777985,9.878108368,12.05054348
19.44343283,6.009253693,4.131408691,9.724378052,12.15496591
19.45346583,6.015091553,4.107159119,9.557175751,12.01622614
19.46349783,6.125262451,3.946243744,9.789642334,12.20363785
19.47352983,6.321204987,3.910917206,10.46653473,12.83749411
19.48356183,6.844666443,4.975054321,10.6659201,13.61478887
19.49359383,6.635850677,2.886297913,10.91200836,13.09340125
19.50362583,4.809498596,2.609673157,-8.597072296,10.19074692
19.51365883,3.841761017,2.996169434,10.23945694,11.33942844
19.52369083,5.503904572,0.710123291,12.62579453,13.79158903
19.53372283,6.232738953,-1.035995636,11.83828217,13.41883924
19.54375483,6.073021088,-1.327738953,13.19536011,14.58636364
19.55378683,5.367089081,-1.699266357,12.25696152,13.48800419
19.56381883,5.291795654,-1.728755035,13.98541718,15.05269374
19.57385183,4.98807724,-2.002236328,13.47033829,14.50309893
19.58388383,5.095553741,-1.633253632,13.06692719,14.12008397
19.59391583,5.341791687,-0.738713837,12.1907991,13.33026704
19.60394783,5.344186707,-1.029109955,12.42850479,13.56787125
19.61397983,4.907694397,-1.463207245,12.1217926,13.15919054
19.62401183,4.31058609,-1.486558685,11.58890076,12.4536593
19.63404383,3.978726196,-1.096769257,10.99209183,11.74134778
19.64407683,3.98411499,-0.7020401,10.4403392,11.19672788
19.65410883,4.186643829,-0.25626709,9.979597321,10.82524928
19.66414083,4.381388855,0.074245605,9.611662445,10.5634339
19.67417283,4.466861115,0.123493195,9.329948273,10.34485541
19.68420483,4.444856873,0.17438736,8.957373047,10.00108471
19.69423783,4.185745697,0.183368683,8.954079895,9.885830156
19.70426983,3.784430237,0.089962921,9.448202362,10.17833648
19.71430183,3.343147888,-0.201630707,9.077273712,9.675442666
19.72433383,3.015778656,0.176932068,8.943302307,9.439750103
19.73436583,2.726130981,0.549207916,8.374485168,8.824138559
19.74439783,2.517614594,0.572259979,7.297325134,7.740595509
19.75442983,2.393073578,0.741408234,6.268364868,6.750472979
19.76446283,2.342628479,1.164877625,5.287005615,5.898921634
19.77449483,2.38933136,1.478774872,4.718787231,5.492051748
19.78452683,2.342927856,1.371747437,4.846920776,5.555505646
19.79455883,2.370470581,0.964594116,5.714217224,6.261138161
19.80459083,2.601440277,0.241597595,8.384214935,8.781851798
19.81462283,2.637215881,0.078586578,8.464897156,8.866542016
19.82465583,3.234324188,1.389560394,7.241940308,8.052169302
19.83468783,3.024460602,2.105371857,5.516029358,6.633741965
19.84471983,2.997067566,1.605561218,7.620652771,8.344734236
19.85475183,4.654121704,2.073937225,8.743318176,10.11966784
