Time (s),Acceleration x (m/s^2),Acceleration y (m/s^2),Acceleration z (m/s^2),Absolute acceleration (m/s^2)
0.014643583,-6.322552185,3.181035004,6.575077057,9.660501443
0.024675583,-4.289929047,1.960323486,7.520960083,8.877567232
0.034706583,-4.264481964,1.414109344,8.704099731,9.795247
0.044737583,-1.87215683,0.574355621,10.37986496,10.56297554
0.054768583,1.095422058,0.058977356,11.19177658,11.24541199
0.064800583,2.89123764,-0.309256897,12.20606735,12.54762827
0.074831583,4.024530945,-0.878074036,12.82368301,13.46902778
0.084862583,2.818339233,-1.039438477,14.79418533,15.09607194
0.094893583,1.561103668,-1.454824677,15.26301041,15.41145828
0.104924583,1.221160583,-2.27586731,12.86379959,13.12052381
0.114956583,0.759670258,-2.113455048,9.982740784,10.23224827
0.124987583,-0.17663269,-1.210083618,8.51234848,8.59974291
0.135018583,-0.580941925,-0.264499969,8.444988556,8.469078194
0.145049583,-0.780926056,0.416733398,10.50201096,10.5392479
0.155081583,0.241447906,0.694106598,10.3873494,10.413314
0.165112583,2.403102722,0.37916153,8.950936432,9.275663274
0.175143583,2.455044708,-0.68796936,8.92773468,9.284664392
0.185174583,1.073717194,-1.626817017,10.29948212,10.48230576
0.195205583,1.348845062,-1.707050171,9.988578644,10.22277392
0.205237583,2.883603516,-0.818647614,10.74001602,11.15048417
0.215268583,4.159250793,0.040415955,9.980046387,10.81213792
0.225299583,3.491788788,0.074395294,9.275461578,9.911221473
0.235330583,1.957329712,-0.052540741,10.01058289,10.20027793
0.245362583,2.205363922,-0.172890472,6.447093201,6.81604958
0.255393583,1.623374176,-1.364113312,-0.852926331,2.285526672
0.265424583,1.7995578,-2.89363266,3.01293457,4.548548447
0.275455583,0.738414459,-1.907483368,5.298681335,5.679768711
0.285486583,-0.19190094,-1.103804626,4.132606201,4.281780545
0.295518583,-1.55616394,0.394878845,-0.194894714,1.617269137
0.305549583,-0.666264496,0.364192657,-0.864152985,1.150349969
0.315580583,3.349584503,-1.374441833,3.320544891,4.91272074
0.325611583,5.86210968,-1.991758118,8.70080658,10.67873894
0.335642583,5.930367737,-1.919159088,10.75842773,12.43367204
0.345674583,4.202061768,-2.588567047,10.15323624,11.28920761
0.355705583,1.996697845,-3.312611389,9.220376129,9.998776548
0.365736583,1.38072876,-3.443888397,8.538693695,9.309998347
0.375767583,1.481918335,-3.796255646,7.711513824,8.722103206
0.385799583,1.427431641,-3.62605957,7.07548645,8.077646786
0.395830583,1.465302887,-3.839815063,6.080355835,7.339074829
0.405861583,1.666334839,-4.59379715,4.007017365,6.319480375
0.415892958,1.75510025,-4.72133194,2.829416199,5.777278615
0.425923958,0.894240417,-4.133354645,3.566184082,5.53190342
0.435955958,0.793200531,-3.358565826,5.710475006,6.672230233
0.445986958,1.575174408,-3.453767853,7.445816345,8.357623337
0.456017958,3.240760803,-4.518204346,9.151369629,10.70814023
0.466048958,6.709198151,-6.450835419,10.7973468,14.25515049
0.476080958,8.632997589,-7.414082336,11.61135406,16.25794598
0.486111958,10.37492523,-6.902146912,12.09829147,17.36799822
0.496142958,11.53950348,-6.127657471,11.60401932,17.47459845
0.506173958,11.68604874,-5.591173096,9.932744751,16.32434899
0.516204958,11.56510025,-4.781057739,7.604785767,14.64386641
0.526236958,10.6249054,-3.368145905,5.714965668,12.52572769
0.536267958,9.384584656,-1.853595428,6.059698792,11.32370057
0.546298958,8.869505768,-1.550924835,7.614365845,11.79203408
0.556329958,8.694669342,-2.02543808,9.471553802,13.0157599
0.566361958,9.584269409,-3.113375702,12.29543152,15.89745151
0.576392958,10.59421921,-4.240681458,14.42684921,18.3944241
0.586423958,11.75864777,-4.590653687,15.85607712,20.26709353
0.596454958,12.82278488,-4.117188263,15.89334961,20.83203334
0.606485958,13.79755783,-3.197949829,14.03646103,19.94045444
0.616517958,14.34676575,-1.780247955,10.43749512,17.8308798
0.626548958,13.54518265,-0.457299042,6.198460236,14.90308709
0.636579958,11.93662766,-0.030686188,2.567311249,12.20963179
0.646610958,10.37118301,-0.068407745,0.921783142,10.41229086
0.656641958,9.471404114,-0.33934433,1.131047974,9.544732578
0.666673958,9.643396454,-0.510438538,2.472258911,9.968335207
0.676704958,10.07824219,-0.709374847,3.659589844,10.7455468
0.686735958,10.58957886,-1.135688324,3.931274872,11.3527041
0.696766958,13.57003098,-2.617606659,-4.184099121,14.43967765
0.706798958,13.88078476,-4.268822937,-9.068891144,17.12144332
0.716829958,7.099885712,-5.942642212,-4.157155151,10.14915329
0.726860958,5.657634888,-5.174439697,-2.111359406,7.952452279
0.736891958,7.018305359,-4.401447144,-2.858156433,8.763469933
0.746922958,7.849227448,-4.271367645,-3.570225677,9.622965472
0.756954958,8.536148987,-4.522994385,-2.56252121,9.994490116
0.766985958,8.201445007,-6.837780762,1.696422272,10.8118821
0.777016958,9.922565918,-5.024002533,0.396824799,11.12903346
0.787047958,10.68118835,-5.65973053,0.645757141,12.1052607
0.797079958,9.538165283,-9.169182587,5.90776474,14.48972707
0.807110958,9.157506866,-7.961943054,5.422623596,13.2912496
0.817141958,10.14410522,-6.155050507,0.729133759,11.88777328
0.827172958,9.893825684,-5.616171112,-1.037342834,11.42388921
0.837203958,10.20457947,-4.918921051,0.295036469,11.3320904
0.847235958,10.84764221,-4.296066284,1.30932724,11.74060752
0.857266958,11.57333313,-3.69746109,1.239871674,12.21272042
0.867297958,11.61809006,-3.349883881,1.485061798,12.18224721
0.877328958,11.46241379,-3.335064697,1.948797455,12.0957595
0.887360958,10.82698517,-3.456312561,2.794538727,11.70380925
0.897391958,9.549841003,-3.991300049,3.69042572,10.98859323
0.907422958,8.075856171,-5.004992065,3.847449188,10.25047627
0.917453958,7.029532013,-5.364394684,2.457888794,9.177813899
0.927484958,6.738686829,-5.338498535,2.15761322,8.863676528
0.937516958,6.924151154,-5.115162964,2.384391632,8.932753484
0.947547958,7.784112854,-4.091441803,2.576891327,9.163660724
0.957578958,8.889863434,-3.04227356,2.561174011,9.738825011
0.967609958,10.33630554,-2.240241394,2.811453552,10.94359013
0.977641958,11.37439682,-1.45213028,3.17908905,11.89925176
0.987672958,11.23698257,-1.15484848,2.839295654,11.64753417
0.997703958,10.4907843,-1.310375061,2.8877948,10.95960751
1.007734958,9.10092453,-1.788929901,2.873424683,9.709977698
1.017765958,7.793243866,-2.021995239,2.84213974,8.538200806
1.027797958,6.98657135,-2.013313293,3.058739319,7.888060336
1.037828958,6.260581055,-1.613943787,3.359463959,7.285992573
1.047859958,4.695735168,-1.275497589,3.581003265,6.041556692
1.057890958,3.02940033,-1.475631409,3.935316467,5.180875419
1.067921958,2.309098206,-2.200274506,5.247038727,6.140403718
1.077953958,2.556533661,-2.41971817,7.586972809,8.363794401
1.087984958,3.199147339,-2.293530579,9.810748444,10.57097967
1.098015958,4.135599976,-2.059417419,11.11049561,12.03276776
1.108046958,5.739963684,-1.350641327,11.72421936,13.12359458
1.118078958,6.806944885,-0.410147095,11.71164551,13.55231935
1.128109958,7.161856842,0.13337265,11.23773102,13.32653669
1.138140958,7.024741974,0.146694946,10.43450134,12.5796398
1.148171958,6.28213623,0.125738525,9.183852081,11.12763159
1.158202958,5.565127258,-0.022902374,7.471113739,9.316045643
1.168234958,5.006339264,-0.171543274,6.038293304,7.845625912
1.178265958,4.959187317,-0.182320862,4.621040497,6.780914025
1.188296958,6.068979492,0.346978455,3.597918091,7.063846028
1.198327958,7.202871552,1.159937897,2.979254608,7.880531234
1.208359958,7.913593597,1.502575378,2.620001678,8.470366296
1.218390958,8.755143585,1.437161407,2.233804779,9.149199741
1.228421958,9.233548737,1.162482605,1.029109955,9.363164816
1.238452958,8.97578476,0.755329285,-0.734522552,9.037408797
1.248483958,8.312663727,0.077538757,-1.687890015,8.482650718
1.258515958,7.077731781,-2.365231476,-2.698887634,7.935527806
1.268546958,3.955225067,-1.306333466,-1.794318695,4.535404286
1.278577958,6.598578186,0.453856201,0.035775604,6.614264844
1.288608958,11.05316483,-2.300865326,1.300046539,11.36470655
1.298639958,12.88176224,-2.19743042,2.104623413,13.23623581
1.308671958,13.5869458,-1.183289337,2.215093689,13.81708761
1.318702958,12.15696945,-1.12910202,1.694925385,12.32637618
1.328733958,10.38016434,-0.829724579,0.587228851,10.42981746
1.338764958,8.921148376,-0.869990845,-0.442629547,8.974390973
1.348796958,7.552095337,-1.946103058,-1.090931396,7.874743958
1.358827958,6.104755096,-3.408711548,-0.700393524,7.026941034
1.368858958,5.451064453,-5.253325653,6.424190826,9.928834869
1.378889958,4.810696106,-6.43901001,8.281229095,11.54046803
1.388920958,4.455035706,-8.989705811,7.530091095,12.54449782
1.398952958,4.863087158,-8.314160614,2.106569366,9.859640862
1.408983958,4.41117691,-9.332193604,-0.521365814,10.33538299
1.419014208,5.311704254,-9.50807785,1.462309113,10.98890779
1.429045208,6.052364044,-7.049590302,5.328768768,10.71091082
1.439077208,6.290668488,-4.17841095,4.573140106,8.828660063
1.449108208,8.202642517,-3.570225677,1.671573944,9.100770028
1.459139208,9.84742218,-3.802542572,-3.45526474,11.10720073
1.469170208,12.18915253,-3.217559052,-9.661808167,15.88328249
1.479201208,10.54063065,-4.134701843,-8.924142151,14.41669057
1.489233208,8.463400269,-5.416486359,-0.712967377,10.0735193
1.499264208,8.770411835,-6.399641876,0.125139771,10.8577714
1.509295208,8.161777496,-7.877368927,-0.509690094,11.35461744
1.519326208,8.105344849,-8.995843048,0.034278717,12.10879772
1.529358208,6.611301727,-8.963510284,-1.529669037,11.24249592
1.539389208,3.659140778,-9.027427368,-2.369123383,10.02479435
1.549420208,3.228486328,-7.748187561,-2.101180573,8.652889358
1.559451208,3.463796997,-6.99480423,-0.684077454,7.835377324
1.569482208,3.682641907,-6.65306488,0.212557983,7.607253421
1.579514208,4.037853241,-6.719676361,0.770447845,7.877302779
1.589545208,5.105283508,-6.504124603,0.943787384,8.322156642
1.599576208,5.935606842,-7.266938324,1.044527893,9.440914135
1.609607208,5.847889252,-9.364825745,-0.35102005,11.04631092
1.619639208,5.066364441,-10.83102676,-0.869691467,11.9889763
1.629670208,4.001778259,-10.5903273,-1.945653992,11.4871594
1.639701208,2.480192413,-10.23930725,-1.070873108,10.58969011
1.649732208,1.991309052,-9.439969482,-1.696272583,9.795696823
1.659763208,1.700014801,-8.826545105,-1.082099762,9.053667141
1.669795208,-0.601748657,-14.20860306,-1.344653778,14.28476797
1.679826208,-1.93652298,-19.04055496,-0.920286255,19.16089198
1.689857208,-2.493065643,-21.53676407,0.595461731,21.68875648
1.699888208,-0.034278717,-18.39839035,2.08860672,18.51659311
1.709920208,0.414937134,-14.9034581,2.755170593,15.16166881
1.719951208,-2.51806366,-12.34722382,0.870439911,12.63139922
1.729982208,-5.080135803,-9.837842102,0.80502594,11.1013055
1.740013208,-6.681954803,-7.895481262,1.224304047,10.41566439
1.750044208,-7.18670517,-6.463708649,1.53520752,9.786987423
1.760076208,-7.529043274,-6.132597198,1.267863464,9.792993352
1.770107208,-6.476282501,-6.222859497,-0.344583435,8.98804501
1.780138208,-4.794679413,-7.535629578,-1.104253693,8.999668884
1.790169208,-3.899391174,-9.035660248,-1.411714325,9.94189846
1.800201208,-3.193309479,-9.755812683,-1.533560944,10.37906141
1.810232208,-2.493215332,-9.967322845,-1.617835693,10.40101148
1.820263208,-2.062411194,-9.660161591,-1.63924118,10.01296028
1.830294208,-1.747316437,-9.179211731,-1.942510529,9.543814221
1.840325208,-1.290765839,-8.633147278,-2.108066254,8.980047422
1.850357208,-0.959205322,-8.260122986,-2.262095947,8.61781786
1.860388208,-0.648750916,-8.052055664,-2.392624512,8.425029983
1.870419208,-0.500259705,-8.056845703,-3.091820526,8.644210584
1.880450208,-0.807271271,-8.792266388,-4.358935547,9.846621463
1.890482208,-1.330882416,-9.959389343,-1.557211761,10.1678706
1.900513208,-2.581681366,-10.85677322,6.389912109,12.8594549
1.910544208,-3.744163971,-10.17209702,4.076472931,11.58049883
1.920575208,-3.962260437,-7.527845764,-4.23918457,9.50466493
1.930606208,-5.103038177,-5.383105774,-12.52625153,14.55767164
1.940638208,-4.750072174,-4.390669556,-8.421637115,10.61909302
1.950669208,-3.287313995,-5.560037842,-0.022752686,6.459177331
1.960700208,-1.665137329,-7.148983612,1.697619781,7.534093305
1.970731208,-0.357905731,-7.097490692,-1.368603973,7.237095237
1.980762208,-0.437091064,-6.64602951,-2.355950775,7.064790224
1.990794208,-0.693208466,-5.535339203,1.048719177,5.676295445
2.000825208,-0.159268799,-5.629493408,-0.317489777,5.640688109
2.010856208,0.076640625,-8.235124969,-3.970493317,9.142645909
2.020887208,-0.047900391,-11.8948645,-7.051835632,13.82817709
2.030919208,-0.584983521,-14.74763214,-9.549242249,17.57904682
2.040950208,-2.465522919,-17.75637543,-8.698710938,19.92574324
2.050981208,-4.934338989,-20.11531998,-3.427272949,20.99333225
2.061012208,-6.94331131,-21.61490158,-3.115022278,22.91542943
2.071044208,-8.444689178,-22.86914337,-4.733456726,24.83376948
2.081075208,-9.858050079,-23.47747833,-6.572682037,26.29778107
2.091106208,-10.94374237,-23.72221939,-5.084626465,26.61508249
2.101137208,-10.62340851,-24.49371506,-2.549049225,26.81970428
2.111168208,-9.506131897,-24.46018478,-3.621868286,26.4912271
2.121200208,-7.806266785,-22.6032962,-4.489314423,24.33106542
2.131231208,-5.640270996,-19.75471985,-5.125341797,21.17382209
2.141262208,-4.201013947,-17.067957,-5.793552246,18.5075369
2.151293208,-2.751578064,-13.93212799,-6.693031769,15.69942822
2.161325208,-2.612517242,-11.90773773,-5.671106873,13.44547944
2.171356208,-1.762285309,-10.34977753,-4.381538544,11.37635374
2.181387208,0.486488342,-7.621550903,-4.257596283,8.74367401
2.191418208,1.49658783,-7.285799103,-3.030747528,8.031691869
2.201449208,3.139870605,-5.892346802,-2.924318848,7.289045135
2.211481208,3.969744873,-3.980073395,-3.083587646,6.411581034
2.221512208,3.402424622,-3.308569794,-2.150877228,5.210508635
2.231543208,2.068548431,-2.339185638,-0.535137177,3.168130973
2.241574208,-0.653690643,-1.82066391,2.208208008,2.935696022
2.251606208,-1.422491913,-0.587977295,1.035396881,1.855059903
2.261637208,-1.377585297,0.350271606,-2.29218338,2.697134794
2.271668208,-2.057321777,0.330213318,-5.39882309,5.786959865
2.281699208,-2.252815247,-0.104333038,-7.156168671,7.503120148
2.291730208,0.338895264,0.541873169,-6.084996185,6.118468363
2.301762208,3.504662018,2.34247879,-2.785557404,5.052642159
2.311793208,3.643423462,3.351380768,1.00980011,5.052324597
2.321824208,3.162473602,3.429967346,3.783382416,6.006654459
2.331855208,3.207080841,3.238365784,5.828579407,7.398967385
2.341887208,3.364403687,2.910248108,5.190157013,6.835677438
2.351918208,2.240840149,1.773661652,2.844235382,4.0319865
2.361949208,1.063987427,1.145717468,1.29405899,2.029612385
2.371980208,0.698746948,1.081501007,0.858165436,1.547365387
2.382011208,0.648451538,1.178050232,0.755329285,1.542340453
2.392043208,0.759670258,1.130149841,0.962648163,1.667641763
2.402074208,0.855770416,0.856219482,1.154100037,1.672543483
2.412105208,0.464334412,-1.489851837,2.89827301,3.291694303
2.422136625,-0.01167572,-1.833836517,1.286873932,2.240343101
2.432168625,0.237556,1.739083557,-0.450263672,1.81206563
2.442199625,-0.159568176,1.69193161,-1.694626007,2.399969141
2.452230625,-0.764160919,0.743503876,-2.783910828,2.981090307
2.462261625,-1.014889526,0.635428619,-2.583028564,2.84706987
2.472292625,-1.542841644,-0.15567627,-2.371668091,2.833620471
2.482324625,-1.785187683,-0.972078552,-2.122735748,2.939020046
2.492355625,-1.318158875,-0.741258545,-1.772164764,2.329715648
2.502386625,-1.991608429,-1.459465027,-6.477330322,6.931980266
2.512417625,-5.399272156,-5.562732239,-29.84164398,30.83212359
2.522449625,-1.777553558,-7.268135834,-33.7643866,34.58351193
2.532480625,-13.27948517,-43.94576431,-34.69560013,57.54441411
2.542511625,-43.12651794,-93.4431839,-2.874472504,102.9552707
2.552542625,-34.46463043,-91.27808624,27.11341736,101.2651825
2.562574625,-4.224365387,-47.42408112,-1.556762695,47.63729886
2.572605625,-10.39872574,-40.30503525,-6.864575043,42.18710412
2.582636625,-13.11093567,-31.06385239,-7.83485733,34.61566912
2.592667625,-9.452094269,-18.66333939,-3.302881622,21.17950307
2.602698625,-9.410780182,-12.7111171,-0.585432587,15.82649717
2.612730625,-9.516610107,-9.822723541,0.748443604,13.69715056
2.622761625,-8.912915497,-6.993906097,2.117197266,11.5255069
2.632792625,-7.67933075,-4.442611542,0.882115631,8.915550799
2.642823625,-6.541247406,-2.157313843,-1.964664459,7.162529377
2.652855625,-4.729564819,0.053289185,-3.482807465,5.873803789
2.662886625,-3.125799866,1.135688324,-3.675756226,4.956974541
2.672917625,-1.869612122,1.503623199,-3.132236481,3.945533878
2.682948625,-0.717008972,1.459614716,-2.454296265,2.944171724
2.692979625,0.201481018,1.19930603,-1.954785004,2.302197638
2.703011625,0.807271271,0.965791626,-1.872755585,2.256469333
2.713042625,1.476529541,1.056952057,-1.829196167,2.577449467
2.723073625,2.472857666,2.217937775,-2.364632721,4.077469916
2.733104625,3.993695068,3.817361755,-3.664379883,6.629444245
2.743136625,4.530478821,4.194427643,-2.979254608,6.855247597
2.753167625,3.690276031,1.948348389,-1.838776245,4.560186039
2.763198625,1.891167297,-0.937650146,-1.327439575,2.493551156
2.773229625,0.562679901,-2.604733429,-1.371148682,2.996880647
2.783261625,0.39083725,-3.122506714,-1.503024445,3.487389341
2.793292625,0.805175629,-2.911894684,-1.343156891,3.306283242
2.803323625,1.450633392,-2.289189606,-0.633782043,2.783236599
2.813354625,2.247576141,-1.291663971,0.0398172,2.592600959
2.823385625,2.290087738,-1.052611084,0.137264557,2.524150055
2.833417625,1.275647278,-0.495918732,1.142124939,1.782599434
2.843448625,0.496667175,2.011966095,2.242935791,3.053759456
2.853479625,0.693208466,2.420167236,0.398920441,2.548898771
2.863510625,0.284857635,0.306113434,-3.575913849,3.600279039
2.873542625,0.775986328,-1.398691406,-6.935677185,7.117732114
2.883573625,-0.664767609,-1.570534058,-0.708626404,1.846793053
2.893604625,-2.901266785,-2.881807251,5.415438538,6.78595141
2.903635625,-2.665806427,-3.125949554,2.408192139,4.762087137
2.913666625,-0.676892395,-4.255350952,-0.977916412,4.418429082
2.923698625,0.912502441,-5.621709595,-0.533340912,5.720203843
2.933729625,1.019679565,-6.368806,-1.046324158,6.534235267
2.943760625,0.652044067,-6.787934418,1.348695374,6.951272857
2.953791625,-0.555943909,-9.476942596,1.149160309,9.562535439
2.963823625,-1.921404419,-12.53433472,2.869233398,13.00130155
2.973854625,-5.518274689,-16.06564133,-1.850601654,17.087449
2.983885625,-12.56681717,-23.76039001,-17.22572891,31.92501784
2.993916625,-13.58200607,-31.12537445,-1.894759827,34.0124968
3.003947625,-12.69824387,-36.21479095,8.965605927,39.4098791
3.013979625,-8.403075714,-38.67492508,-11.0402916,41.08831403
3.024010625,-5.78022995,-37.93770813,-6.781348114,38.97008389
3.034041625,-8.277337189,-38.84332489,-1.318757629,39.73735423
3.044072625,-6.968459015,-40.41326019,-6.409521332,41.50750515
3.054104625,-4.382286987,-39.4072023,-0.533640289,39.6537111
3.064135625,1.143621826,-36.11509827,1.175355835,36.15231189
3.074166625,5.893843689,-30.85279129,-2.896476746,31.54396458
3.084197625,7.46168335,-25.06612473,-1.2859758,26.18474863
3.094228625,8.479866028,-18.79087418,-0.799936523,20.63116523
3.104260625,7.709268494,-13.93018204,-2.133513336,16.06345764
3.114291625,5.963598633,-11.40014328,-1.065035248,12.90976667
3.124322625,3.705244904,-8.26431427,1.039737854,9.116401974
3.134353625,-0.033081207,-5.913303223,1.185684357,6.03109416
3.144385625,-1.82530426,-5.271737366,1.064436493,5.679434439
3.154416625,-1.916913757,-3.107986908,0.262254639,3.660999654
3.164447625,-2.607577515,-0.698297882,-0.334703979,2.720129993
3.174478625,-3.610491943,-0.540226593,0.066611481,3.651292091
3.184510625,-3.448828125,-1.547481995,1.027463379,3.91724354
3.194541625,-2.19039505,-2.546354828,3.149001617,4.604124735
3.204572625,-1.305734711,-1.00980011,1.098415833,1.982714487
3.214603625,-1.374591522,-0.644260254,1.133592682,1.894625424
3.224634625,-1.28118576,-1.101409607,2.668051758,3.158012074
3.234666625,-1.203347626,-0.280666351,-0.20013382,1.25174784
3.244697625,-2.66775238,-0.380209351,-5.510640564,6.134217256
3.254728625,-2.69349884,2.281555481,-6.331533508,7.249051523
3.264759625,-1.285826111,3.075953522,-1.213227081,3.547782238
3.274791625,1.619631958,2.349663849,7.018904114,7.576882132
3.284822625,4.985831909,2.472109222,9.071286163,10.64227779
3.294853625,6.910080414,3.437451782,3.864663391,8.63139092
3.304884625,7.288044434,2.856659546,0.209713898,7.830713591
3.314915625,5.773643646,1.865570526,-1.720522156,6.306782922
3.324947625,4.285139008,0.519868927,-2.422861633,4.950044294
3.334978625,2.690505066,-0.915945282,-3.172652435,4.25951837
3.345009625,1.524429932,-1.052162018,-4.361779633,4.738781815
3.355040625,1.561702423,-0.300574951,-4.730313263,4.990503314
3.365072625,1.657353516,0.265547791,-3.564537506,3.939957352
3.375103625,1.644180908,-0.068258057,-0.659229126,1.772730397
3.385134625,2.205214233,-1.175355835,3.199446716,4.059666297
3.395165625,2.051483917,-3.191812592,5.350024567,6.558888377
3.405196625,1.686243439,-4.891977081,4.436773682,6.816143881
3.415228333,-1.093326416,-6.645281067,1.634002075,6.930013412
3.425259333,-2.878663788,-6.423442383,4.731510773,8.481421546
3.435290333,-2.39516922,-4.406237183,0.596060486,5.050450456
3.445321333,0.919537811,-4.281696167,-1.664089508,4.684833588
3.455352333,3.417243805,-7.233258362,5.009333038,9.43880285
3.465384333,1.343156891,-11.51630173,14.51636307,18.57832265
3.475415333,2.170935516,-14.70721619,15.8204512,21.70948745
3.485446333,2.164349213,-17.94707886,14.42190948,23.12517071
3.495477333,-2.118394775,-21.68286026,16.69867493,27.44958597
3.505509333,-3.188968506,-21.58900543,18.27175369,28.46246052
3.515540333,-4.026327209,-22.40106674,21.72507248,31.4642317
3.525571333,-5.037474518,-24.55374023,20.44927551,32.34865033
3.535602333,0.674048309,-21.82132233,22.58698013,31.4133112
3.545633333,6.983427887,-16.43537247,28.6231778,33.73686471
3.555665333,8.441545715,-15.10149628,29.92517029,34.56632322
3.565696333,7.520511017,-15.15373764,25.20758057,30.35812854
3.575727333,5.340145111,-15.543078,18.07461365,24.42941019
3.585758333,1.959125977,-15.31824554,11.1211235,19.03066497
3.595790333,-0.064665527,-13.34205505,8.279283142,15.70226557
3.605821333,-0.308358765,-10.65259781,7.814050598,13.21485195
3.615852333,-0.659678192,-8.200546875,5.884712677,10.1150377
3.625883333,-1.982926483,-7.208260345,5.267097015,9.145125785
3.635915333,-1.993704071,-6.496041412,6.55127655,9.438889468
3.645946333,-0.98285614,-5.197940826,6.441405029,8.335244074
3.655977333,0.964294739,-3.621119843,4.402944031,5.78172028
3.666008333,2.190544739,-2.84333725,2.587519226,4.424738265
3.676039333,2.196981354,-2.648592224,0.966989136,3.574470006
3.686071333,2.472857666,-2.377805328,0.170196075,3.434814394
3.696102333,1.539099426,-2.903811493,0.768202515,3.375067901
3.706133333,1.081800385,-3.039728851,0.021704865,3.22656391
3.716164333,1.04258194,-2.072889404,0.252375183,2.333996747
3.726196333,1.108744354,-1.371448059,1.232536926,2.151588041
3.736227333,0.669407959,-1.043330383,2.52973938,2.817130922
3.746258333,0.549656982,-0.537981262,2.052681427,2.192041897
3.756289333,0.867595825,0.378263397,1.395398254,1.686102607
3.766320333,1.056053925,0.970132599,1.292711792,1.930676288
3.776352333,1.102607117,0.975222015,1.366059265,2.008212725
3.786383333,1.140478363,0.989592133,1.59717865,2.197945205
3.796414333,1.217867432,0.927471313,1.438508606,2.100645407
3.806445333,1.350192261,0.712817688,1.191073151,1.936435759
3.816477333,1.42518631,0.60608963,0.917142792,1.799903208
3.826508333,1.460812225,0.659229126,0.916693726,1.846316003
3.836539333,1.290466461,0.160166931,0.697549438,1.475646418
3.846570333,1.073268127,0.261506195,-0.195343781,1.121806203
3.856601333,1.234931946,1.109043732,0.158819733,1.667410752
3.866633333,1.620829468,1.030756531,1.493294678,2.432997366
3.876664333,1.947300568,0.388591919,2.087558899,2.881125706
3.886695333,1.906136169,-0.088466034,2.380350037,3.050778201
3.896726333,1.756447449,0.442928925,3.221001892,3.69542242
3.906758333,1.344354401,0.704135742,5.459746399,5.666738625
3.916789333,0.157622223,-0.562081146,7.644902344,7.667158002
3.926820333,-0.906963959,-1.53520752,8.858578491,9.036252466
3.936851333,-1.926643524,-2.623743896,10.18616776,10.69364301
3.946882333,-3.404819641,-4.313280487,12.60468842,13.75046746
3.956914333,-4.766238556,-6.226302338,14.62069611,16.5906186
3.966945333,-5.883365479,-8.758287048,14.42490326,17.87174909
3.976976333,-6.541546783,-11.20135666,16.77561493,21.20574171
3.987007333,-5.498665466,-11.19072876,19.78465759,23.38590191
3.997039333,-4.785249023,-10.42492126,19.09998138,22.27974148
4.007070333,-3.107388153,-8.433163147,19.04384811,21.05806859
4.017101333,-2.787503357,-6.364614716,16.57967239,17.97676367
4.027132333,-4.342320099,-5.146597595,16.45782578,17.78210448
4.037163333,-6.777306519,-6.984176331,16.80270859,19.41755954
4.047195333,-7.718848572,-9.907896423,18.03344925,21.97617634
4.057226333,-7.490573273,-11.29012207,18.93008469,23.27925365
4.067257333,-7.051985321,-10.17733612,15.91086319,20.16095818
4.077288333,-7.241191864,-10.01986359,10.583741,16.27415434
4.087320333,-5.385201416,-11.06109833,12.46892075,17.51634308
4.097351333,-5.05244339,-10.08692413,12.08826233,16.53479086
4.107382333,-5.596861267,-8.719367981,10.81141754,14.97461129
4.117413333,-4.947511597,-9.122330017,9.967771912,14.38927562
4.127444333,-4.127067719,-9.473200378,8.93716507,13.66188614
4.137476333,-3.536396027,-8.241711273,7.808661804,11.89147177
4.147507333,-2.857857056,-6.49394577,8.019573212,10.7075783
4.157538333,-1.742376709,-5.135370941,9.024583282,10.52858085
4.167569333,-0.761017456,-4.788542175,9.165590057,10.36905612
4.177601333,-0.18366806,-4.570595398,9.390572205,10.44542592
4.187632333,0.231269073,-3.930227051,11.65566193,12.30262675
4.197663333,0.582289124,-4.534520416,8.511600037,9.661690909
4.207694333,1.304986267,-4.308789825,5.238207092,6.90705961
4.217725333,2.815495148,-2.858306122,1.738335114,4.372497659
4.227757333,3.527414703,-1.547332306,-0.109572144,3.853426762
4.237788333,4.012406158,-0.19070343,-0.440084839,4.040970879
4.247819333,4.189188538,0.631087646,-0.525706787,4.268950673
4.257850333,3.141217804,1.204844513,0.653391266,3.427217492
4.267882333,1.831441498,0.718655548,0.390238495,2.005724268
4.277913333,0.241447906,-0.361797638,0.23875351,0.496183293
4.287944333,0.005688171,-0.661175079,-0.383352814,0.764293282
4.297975333,1.924697571,-0.433797913,-24.00093979,24.08189677
4.308007333,5.339696045,1.567689972,-1.5328125,5.772306286
4.318038333,4.584516449,-0.915645905,7.243287506,8.620986741
4.328069333,2.982847137,-1.637893982,7.221283264,7.982919624
4.338100333,0.732726288,-3.194207611,6.697073364,7.455913205
4.348131333,0.78391983,-3.188669128,4.32345932,5.429036895
4.358163333,1.224603424,-2.152523804,5.086722107,5.657539577
4.368194333,0.461490326,-2.506238251,6.96546524,7.417001382
4.378225333,-1.390757904,-4.297114105,7.699389038,8.926364811
4.388256333,-2.273621979,-6.417005768,6.973398743,9.745543081
4.398288333,-1.067729645,-6.958280182,6.009253693,9.255746303
4.408319333,0.699046326,-6.579118652,6.785838776,9.477398161
4.41835075,2.245630188,-6.492448883,8.07241333,10.59993417
4.42838175,3.09960434,-6.791826324,10.03662872,12.50881161
4.43841275,2.73211853,-8.35442688,14.91633133,17.3135167
4.44844475,1.47548172,-9.737999725,20.72904373,22.94992242
4.45847575,-0.507295074,-11.90878555,24.50194794,27.24742143
4.46850675,-1.741478577,-13.96446075,26.98872665,30.4373172
4.47853775,-2.049687653,-14.8211293,28.08579529,31.82261759
4.48856975,-1.855541382,-14.49001785,28.37020386,31.91037634
4.49860075,-1.919009399,-13.09012894,28.71673325,31.61779311
4.50863175,-2.600242767,-12.40036331,26.83424789,29.6750254
4.51866275,-3.896547089,-10.75154205,23.03245377,25.71522238
4.52869475,-6.687792664,-9.297316132,19.36208633,22.49571171
4.53872575,-9.97735199,-9.656269684,17.36538849,22.23393385
4.54875675,-11.71718399,-11.18040024,16.86961945,23.38541876
4.55878775,-10.84554657,-11.04493195,17.48858231,23.3552331
4.56881875,-8.437055054,-9.813742218,18.01997726,22.18587422
4.57885075,-5.968688049,-8.678353271,17.14729202,20.12383354
4.58888175,-3.898942108,-7.699389038,15.68947357,17.9064771
4.59891275,-1.741328888,-6.150559845,13.06378372,14.54386667
4.60894375,0.027243347,-4.464915161,9.304800568,10.32063579
4.61897575,1.018482056,-3.04107605,6.106401672,6.897361135
4.62900675,1.235979767,-1.986519012,3.07730072,3.86570608
4.63903775,1.128652954,-1.035696259,0.876128082,1.764688258
4.64906875,0.901724854,-0.071700897,-0.390537872,0.98527588
4.65909975,0.624651031,0.276475067,-1.141526184,1.330304252
4.66913175,0.127235413,0.068856812,-1.423839111,1.431170125
4.67916275,-0.659678192,-0.820593567,-1.630409546,1.94082055
4.68919375,-0.743803253,-1.07057373,-1.708247681,2.148832597
4.69922475,-0.355361023,-1.298100586,-1.945653992,2.365780219
4.70925675,-0.080981598,-1.35617981,-1.865720215,2.307963088
4.71928775,0.079634399,-1.248553619,-1.485361176,1.942041606
4.72931875,0.177680511,-1.584155731,-1.309626617,2.063066073
4.73934975,0.371677094,-1.643282776,-1.384470978,2.180660916
4.74938175,0.446671143,-1.756896515,-1.126856689,2.134480375
4.75941275,0.414937134,-1.662592621,-0.54756134,1.798947045
4.76944375,0.294437714,-1.460363159,-0.535137177,1.58294849
4.77947475,0.049846344,-0.999022522,-0.858015747,1.317847366
4.78950575,-0.022752686,-0.426612854,-1.097667389,1.177875167
4.79953775,0.152383118,0.197888489,-0.773890686,0.81319571
4.80956875,-0.115110626,0.665216675,-0.274828491,0.728899431
4.81959975,-0.873134308,0.828976135,0.079933777,1.206629339
4.82963075,-1.763782196,0.751736755,0.920735321,2.126920148
4.83966275,-2.511327667,0.276624756,1.671124878,3.029182442
4.84969375,-2.923869781,0.029937744,1.929936676,3.50350772
4.85972475,-2.918331299,0.788709869,2.856060791,4.158822438
4.86975575,-3.337160339,1.288520508,3.14750473,4.764841053
4.87978675,-3.882027283,1.391805725,4.191433868,5.880083067
4.88981875,-4.393813019,1.12326416,6.092480621,7.595106012
4.89984975,-5.004842377,0.116158447,8.759933624,10.08951818
4.90988075,-5.231022034,-0.998274078,12.49406845,13.58167475
4.91991175,-5.01142868,-2.058668976,16.91392731,17.76044685
4.92994375,-5.387446747,-2.857857056,19.82776794,20.74445254
4.93997475,-6.468348999,-3.480711823,19.5629686,20.89652205
4.95000575,-7.394473114,-3.590283966,17.65563492,19.47536433
4.96003675,-7.602241058,-3.332070923,17.21555008,19.11208859
4.97006875,-7.156917114,-3.479664001,18.56125168,20.19528628
4.98009975,-7.021598511,-3.389850769,18.48476074,20.06191201
4.99013075,-7.660170593,-3.863914948,18.7865332,20.6528904
5.00016175,-8.327333221,-4.160148926,23.1342421,24.93680964
5.01019275,-10.06207581,-5.544919281,29.36907669,31.53623575
5.02022475,-3.104693756,-13.03609131,66.12080109,67.46509569
5.03025575,-9.666448517,-16.90823914,49.86475571,53.53337874
5.04028675,-20.09526169,-5.837111664,4.999303894,21.51474969
5.05031775,-15.80892517,-4.242926788,15.06123001,22.24331792
5.06034975,-11.18563934,-3.921844482,18.86107819,22.27643737
5.07038075,-6.576573944,-1.510658569,10.98565521,12.89255733
5.08041175,-4.40653656,0.750389557,5.792803802,7.316913614
5.09044275,-2.95560379,3.597019958,2.723885651,5.393857561
5.10047475,-3.982468414,3.079246674,4.840035095,6.98339133
5.11050575,-4.111200714,0.305065613,8.995393982,9.895056808
5.12053675,-4.47674057,-1.589095459,6.655160522,8.176649197
5.13056775,-5.565726013,-3.581302643,4.096381531,7.783532381
5.14059875,-4.486170959,-4.44395874,2.084864502,6.649899184
5.15063075,-2.916385345,-3.719764709,-0.814456329,4.79638323
5.16066175,-0.825233917,-8.950187988,-3.415896606,9.615364042
5.17069275,7.412286072,-8.737630005,2.302661591,11.68719014
5.18072375,11.88393723,-4.766537933,1.357377319,12.87595903
5.19075575,10.73013657,-5.330714722,-2.506387939,12.24068342
5.20078675,6.704707489,-4.062102814,-2.387235718,8.194673645
5.21081775,2.20910614,-2.738405457,-3.705993347,5.110127305
5.22084875,-1.468596039,-2.877765656,-4.121678925,5.237036056
5.23088075,-4.13979126,-2.131417694,-2.230960693,5.163138452
5.24091175,-5.892047424,-1.654210052,-0.699645081,6.159718905
5.25094275,-5.893394623,-0.486188965,-0.219443665,5.917485565
5.26097375,-4.505331116,3.041674805,-1.318757629,5.593649593
5.27100475,-2.545307007,5.442532196,-3.036884766,6.732192328
5.28103675,-4.001329193,3.53953949,0.225730591,5.346955153
5.29106775,-3.593427429,2.67598526,4.75411377,6.532627001
5.30109875,-4.106260986,-0.492326202,4.66400116,6.233511947
5.31112975,-4.36671936,-1.421144714,4.5984375,6.498732008
5.32116175,-3.021616516,-0.93839859,4.167783051,5.232702346
5.33119275,-1.018931122,1.04722229,5.147795105,5.351139094
5.34122375,-0.945134583,2.608625336,6.142476654,6.740046362
5.35125475,-0.495319977,3.878434753,5.314997406,6.598241845
5.36128675,-0.0199086,3.397335205,2.818339233,4.414217811
5.37131775,-0.217048645,1.692530365,-0.697549438,1.843459891
5.38134875,-1.227297821,-0.285306702,-3.915407867,4.113159202
5.39137975,-3.1054422,-1.900597687,-2.328408051,4.321750441
5.40141075,-4.195026398,-2.487227783,2.964884491,5.707459029
5.41144275,-5.80358139,-4.505031738,5.311404877,9.065753674
5.421473458,-9.429640961,-8.449329529,13.12859894,18.23922718
5.431504458,-16.89925781,-12.33435059,12.43943207,24.34051333
5.441535458,-23.10415466,-13.72301285,10.90437424,29.00049003
5.451567458,-23.95902695,-8.303532715,11.39146133,27.79836361
5.461598458,-27.0584816,-5.131928101,8.983418884,28.96894764
5.471629458,-32.08203506,-5.051096191,10.47342041,34.12423013
5.481660458,-34.93330582,-4.744533691,11.22830063,36.99893499
5.491692458,-35.29989349,-5.320685577,10.70603668,37.26944321
5.501723458,-32.88481567,-6.44948822,9.515711975,34.83612743
5.511754458,-30.80444183,-6.101611633,10.74989548,33.19192001
5.521785458,-27.5933194,-5.577551422,10.02585114,29.88340754
5.531816458,-24.93350052,-5.904770966,7.068750458,26.58031229
5.541848458,-22.01457047,-6.019282837,4.930447083,23.34914103
5.551879458,-18.0632373,-6.272107086,2.470612335,19.2801399
5.561910458,-13.95997009,-4.939578094,0.712218933,14.82523027
5.571941458,-11.44340332,-4.321363678,0.433498535,12.23983597
5.581973458,-9.129215698,-3.896696777,0.311801605,9.930963965
5.592004458,-5.572462006,-3.602109375,0.161065063,6.637278562
5.602035458,-1.822759552,-3.000959473,-0.028740234,3.511272724
5.612066458,1.090781708,-1.685195618,-1.110540619,2.294120631
5.622098458,3.400029602,-0.350271606,-1.16068634,3.609720803
5.632129458,5.674998779,0.257165222,0.187859344,5.683927887
5.642160458,6.856042786,0.965492249,1.311123505,7.046739871
5.652191458,6.806196442,1.509760437,1.407672729,7.112329372
5.662222458,5.618865509,1.783840485,0.254919891,5.900738991
5.672254458,3.627107391,2.423310699,-1.17131424,4.516671321
5.682285458,2.418820038,3.529660034,-1.763632507,4.628130287
5.692316458,2.638114014,4.590054932,-0.297132111,5.302502929
5.702347458,2.833308105,4.786895599,0.004041595,5.562555225
5.712379458,2.998115387,5.208419037,0.358354797,6.020360695
5.722410458,2.318528595,3.936513977,0.70907547,4.623256986
5.732441458,1.781295776,2.826422424,0.011825409,3.340930739
5.742472458,2.098186798,2.797532501,-0.17902771,3.501517793
5.752504458,2.259251862,2.992726593,-0.359402618,3.766935316
5.762535458,2.200124817,2.731220398,-1.23912323,3.719615632
5.772566458,1.552571411,1.690285034,-2.666405182,3.518132754
5.782597458,0.386346588,0.138911133,-1.498982849,1.55419097
5.792628458,-0.62016037,-2.933000793,0.474513245,3.035169741
5.802660458,-2.718047791,-7.711962891,6.022126923,10.15520399
5.812691458,-4.789589996,-10.90257797,11.43427231,16.50905697
5.822722458,-4.196523285,-9.494156799,6.390211487,12.18952927
5.832753458,-1.899400177,-5.758674774,-1.669328613,6.289412867
5.842785458,-0.881217499,-4.544100494,-4.438420258,6.412875172
5.852816458,-0.810714111,-4.781057739,-2.603086853,5.503801563
5.862847458,-1.5819104,-4.703369293,-1.508113861,5.186379338
5.872878458,-3.009192352,-6.032754822,-1.554217987,6.918450903
5.882910458,-4.883744202,-7.523205414,-0.530796204,8.985061031
5.892941458,-8.646020508,-8.234526215,5.566474457,13.17371362
5.902972458,-16.11009888,-9.012308807,21.54589508,28.37221512
5.913003458,-26.42095734,-12.72473877,22.40705429,36.90612477
5.923034458,-32.12454666,-17.10612762,15.48993851,39.55432082
5.933066458,-28.26048203,-16.73340271,14.48717377,35.89623677
5.943097458,-30.16362442,-17.18890549,13.86880966,37.3851119
5.953128458,-27.77698746,-15.65309921,6.034700775,32.44993314
5.963159458,-22.8103157,-17.90157349,8.865613861,30.32121279
5.973191458,-16.34855301,-19.06719955,1.059496765,25.13873143
5.983222458,-11.533965,-19.68735992,2.830314331,22.99206751
5.993253458,-4.785548401,-16.57413391,0.087418213,17.25140662
6.003284458,-0.193996582,-16.22640701,-0.603095856,16.23876978
6.013316458,-0.418978729,-16.54404648,-3.271446991,16.86959936
6.023347458,-6.061644745,-22.01247482,12.95466064,26.25101555
6.033378458,-7.864944763,-22.85177948,9.49520462,25.96574845
6.043409458,-5.666616211,-18.99998932,-8.184081116,21.4496927
6.053441458,-2.714455261,-20.05574387,-2.870131531,20.44110526
6.063472458,0.705033875,-19.36403229,4.483476563,19.8888004
6.073503458,1.108145599,-14.50768112,1.148262177,14.59518086
6.083534458,-1.917362823,-6.754404144,0.679287415,7.054054645
6.093565458,-3.581452332,-1.628463593,0.601149902,3.979959256
6.103597458,-2.161804504,0.426014099,0.177231445,2.210497164
6.113628458,-0.839454346,1.814526672,-0.564775543,2.077537498
6.123659458,0.784219208,3.161425781,0.355361023,3.276567441
6.133690458,1.904190216,4.238436127,0.998872833,4.75268641
6.143722458,0.738115082,4.484524384,-0.692010956,4.597243955
6.153753458,-0.394729156,2.169887695,0.182919617,2.213071012
6.163784458,0.280217285,-0.282911682,0.171393585,0.433516445
6.173815458,0.379460907,-0.857416992,-2.189945984,2.382229605
6.183847458,0.681083679,-0.90801178,-2.130369873,2.413884042
6.193878458,0.330961761,-1.239272919,-1.588646393,2.041844856
6.203909458,0.006286926,-1.025218048,-0.572559357,1.174280967
6.213940458,-0.242795105,-0.535137177,0.668809204,0.890296025
6.223971458,-0.501906281,0.05149292,1.471589813,1.555679277
6.234003458,-0.631686401,0.446072388,2.618355103,2.730163315
6.244034458,-0.68572403,0.717607727,4.199816437,4.31551114
6.254065458,-0.366437988,0.484841766,4.763693848,4.802304386
6.264096458,-0.406853943,-0.254021759,3.483705597,3.516569617
6.274128458,-0.455951843,-0.713117065,1.289119263,1.542159689
6.284159458,-0.606688385,-1.073717194,-0.61432251,1.377799533
6.294190458,-0.899928589,-1.388811951,-1.586101685,2.29224533
6.304221458,-1.060993652,-1.31980545,-1.937421112,2.573168188
6.314253458,-0.843196564,-0.907562714,-1.939816132,2.301637927
6.324284458,-0.741557922,-0.683179321,-1.353934479,1.688129352
6.334315458,-1.189576263,-0.802181854,-1.340312805,1.963421969
6.344346458,-1.567839661,-1.306183777,-2.180515594,2.986450321
6.354378458,-1.553170166,-2.433489532,-1.206640778,3.128928065
6.364409458,-1.256487122,-4.028871918,0.562979279,4.257641892
6.374440458,-2.03831131,-7.076833649,5.03957016,8.923763493
6.384471458,-3.002306671,-11.6480278,10.21865021,15.78325724
6.394502458,-2.689307556,-23.34111191,18.65061584,29.99808913
6.404534458,-3.005001068,-36.42585205,20.78817078,42.0478391
6.414565458,-3.686384125,-33.38717102,-5.479804688,34.03411342
6.424596625,-5.043911133,-35.163078,2.640209656,35.62097418
6.434627625,-1.736089783,-62.23847443,18.63953888,64.99287743
6.444659625,6.11717926,-71.94773392,1.479523315,72.22247079
6.454690625,3.657045135,-53.36597488,-12.38299942,54.90573676
6.464721625,-4.68271225,-39.80492523,10.14694931,41.34392878
6.474752625,-2.091899872,-26.15630768,6.946005707,27.1436083
6.484784625,1.861528931,-16.45123947,0.362546082,16.56019353
6.494815625,0.801283722,-12.97876053,2.921624451,13.32764682
6.504846625,-0.909957733,-9.793384552,2.04175415,10.0452558
6.514877625,-2.16345108,-8.727750549,0.166603546,8.993436883
6.524908625,-2.271077271,-6.674470367,-0.087418213,7.050814747
6.534940625,-0.775986328,-4.581672363,-0.380209351,4.662449525
6.544971625,-1.131946106,-2.672542419,-1.067729645,3.092544513
6.555002625,-1.783391418,-0.809067535,0.701141968,2.080066174
6.565033625,-2.499651947,0.603395233,0.873433685,2.715737849
6.575065625,-2.774480438,1.893712006,-0.754580841,3.442859147
6.585096625,-2.20910614,3.010240173,-1.111438751,3.895765899
6.595127625,-1.663490753,3.005001068,-0.560135193,3.480083956
6.605158625,-1.461261292,2.851270752,-0.080981598,3.204931744
6.615190625,-1.611548767,2.762355652,-0.052540741,3.198508825
6.625221625,-1.6814534,2.020348663,-0.443377991,2.66564782
6.635252625,-1.096020813,0.256716156,-0.346679077,1.177858731
6.645283625,-0.377365265,-1.22505249,0.371377716,1.334570925
6.655315625,0.085771637,-1.716330872,1.827399902,2.50849334
6.665346625,0.806822205,-1.414109344,2.955304413,3.374091208
6.675377625,1.596280518,-1.596579895,2.78361145,3.584085875
6.685408625,1.093326416,-1.708397369,2.627935181,3.319642682
6.695439625,0.353564758,-1.296004944,2.133962402,2.521593224
6.705471625,-0.111518097,-0.88346283,1.701960754,1.920836606
6.715502625,-0.515078888,-0.345930634,1.294957123,1.435927649
6.725533625,-0.379760284,-0.099842377,0.708027649,0.809623076
6.735564625,-0.595761108,0.037871246,-0.182620239,0.624272121
6.745596625,-0.83780777,0.050145721,-0.91265213,1.239907401
6.755627625,-0.783620453,0.191451874,-1.45557312,1.664153822
6.765658625,-0.594264221,0.138013,-1.739382935,1.843271696
6.775689625,-0.455951843,0.073497162,-1.578168182,1.64435663
6.785721625,-0.443078613,0.037871246,-0.898132324,1.002194872
6.795752625,-0.326321411,0.126037903,-0.329015808,0.480231838
6.805783625,0.135318604,0.371826782,-0.293988647,0.492945844
6.815814625,0.540226593,0.60728714,0.206121368,0.838527555
6.825845625,-0.284857635,-0.242944794,1.327589264,1.379369167
6.835877625,-2.740052032,-2.998414764,1.729952545,4.414873956
6.845908625,-3.320095825,-5.618865509,-2.639012146,7.039820382
6.855939625,-2.997965698,-9.761051788,-2.614762573,10.54053669
6.865970625,-3.283422089,-17.61237488,6.60396698,19.0942135
6.876002625,-3.050656128,-28.00675964,9.982740784,29.88879727
6.886033625,-2.266885986,-36.69663895,-1.632056122,36.80279458
6.896064625,-0.833915863,-46.32312057,-3.680097198,46.47655356
6.906095625,-1.462159424,-63.34781754,12.82532959,64.64961698
6.916127625,-3.867507477,-72.46176498,17.71446259,74.6958311
6.926158625,-1.126557312,-47.54038925,18.46814529,51.01401898
6.936189625,5.324876862,-24.72902573,11.88019501,27.94670035
6.946220625,6.480623474,-21.23738663,0.682430878,22.21465245
6.956252625,4.363126831,-20.96061218,-3.126398621,21.63697084
6.966283625,3.871698761,-19.68571335,-0.198337555,20.06381567
6.976314625,2.329904938,-18.24750412,2.529290314,18.5687149
6.986345625,-0.681233368,-16.29586258,1.269809418,16.35945085
6.996376625,-2.857857056,-12.87652313,0.297132111,13.19319834
7.006408625,-4.248914337,-7.827223206,-1.375489655,9.011696175
7.016439625,-4.990621948,-4.026327209,-0.900527344,6.475227233
7.026470625,-5.137167206,-1.801653442,-0.207618256,5.447893847
7.036501625,-4.087400208,0.997675323,-0.884660339,4.299397681
7.046533625,-2.951861572,2.352507935,1.476379852,4.053082505
7.056564625,-1.815873871,3.207829285,2.957849121,4.7261441
7.066595625,-0.776136017,3.510649567,1.462309113,3.881416679
7.076626625,-0.421373749,3.523223419,-0.816851349,3.641140649
7.086658625,-0.119152222,3.652404785,-1.417701874,3.919711286
7.096689625,-0.250578918,3.281476135,-0.530796204,3.333559664
7.106720625,-0.669407959,1.069525909,2.236948242,2.568254295
7.116751625,-0.403860168,-2.151475983,4.843178558,5.31491585
7.126783625,-0.418829041,-3.998634796,3.643124084,5.425573803
7.136814625,0.228574677,-3.503314819,0.316741333,3.525022862
7.146845625,1.105900269,-2.192640381,-0.595312042,2.52687231
7.156876625,0.248183899,-1.291364594,-0.079484711,1.317397275
7.166907625,-0.660426636,-0.684077454,0.074694672,0.953784356
7.176939625,-1.171763306,-0.435594177,-0.214953003,1.268454306
7.186970625,-1.460363159,-0.195792847,-0.607736206,1.593843999
7.197001625,-1.611997833,-0.128283234,-0.877026215,1.839610987
7.207032625,-1.615440674,-0.155376892,-0.744851074,1.78566337
7.217064625,-1.722917175,0.051193542,-0.214054871,1.73691792
7.227095625,-1.94236084,0.305664368,-0.032033386,1.966525483
7.237126625,-2.234702911,0.641715546,0.213456116,2.334793236
7.247157625,-2.218386841,1.080453186,0.546064453,2.52721302
7.257189625,-1.878743134,1.348695374,0.491128693,2.364288977
7.267220625,-1.109343109,1.532513123,0.146994324,1.897589507
7.277251625,-0.18950592,1.196162567,0.347128143,1.259847343
7.287282625,-0.154927826,-0.645757141,0.592318268,0.889857206
7.297314625,-0.479902039,-2.403851166,1.321901093,2.785000699
7.307345625,-0.964294739,-4.220772858,2.246678009,4.877740249
7.317376625,-2.491868134,-7.076534271,1.848655701,7.726853951
7.327407625,-3.303630066,-11.02352646,-2.458936615,11.76768781
7.337439625,-3.635639648,-19.7155014,5.097948761,20.68593611
7.347470625,-3.906426544,-32.98495743,20.83577179,39.20965405
7.357501625,0.012573853,-40.85873383,13.64472565,43.07684791
7.367532625,2.300865326,-42.86201797,-10.28481262,44.13868979
7.377563625,1.097966766,-42.66802139,-2.380799103,42.74849453
7.387595625,-2.59874588,-43.48202866,11.96746353,45.1736702
7.397626625,-4.621190186,-35.44943253,3.487148438,35.91904605
7.407657625,-2.229314117,-33.67607025,2.618504791,33.85120554
7.417688625,-0.518970795,-32.38874725,3.566782837,32.58868238
7.427720833,0.172441406,-30.55476105,4.975054321,30.95762142
7.437751833,0.635278931,-26.8912793,4.859045563,27.33413261
7.447782833,0.734073486,-22.01576797,2.874173126,22.21471977
7.457813833,0.741557922,-17.66746033,4.140090637,18.16120627
7.467845833,1.025966492,-13.47976868,3.717669067,14.02062174
7.477876833,0.378113708,-10.00190094,1.097218323,10.06900593
7.487907833,-0.777034149,-7.474257202,-0.417182465,7.526110815
7.497938833,-1.798659668,-5.363945618,-1.00156723,5.745452646
7.507970833,-2.783761139,-3.09256897,-0.689765625,4.217710935
7.518001833,-3.360811157,-1.119521942,-0.441881104,3.569823514
7.528032833,-2.58826767,1.060544586,-0.131726074,2.800220725
7.538063833,-1.300196228,2.483934631,0.009879456,2.803665295
7.548094833,-0.276624756,3.014880524,0.157173157,3.031621551
7.558126833,0.972527618,3.673959961,1.410367126,4.053754703
7.568157833,2.212848358,4.461622009,2.606080627,5.620891837
7.578188833,2.218386841,4.567002869,2.412233734,5.621176653
7.588219833,0.031284943,2.045496368,1.704206085,2.662583806
7.598251833,-0.408500519,-0.735270996,-0.495619354,0.976286155
7.608282833,0.872236176,-1.593436432,-1.999242554,2.70126015
7.618313833,0.894689484,-0.894839172,-0.019309845,1.265535178
7.628344833,0.380508728,-0.241148529,2.313139801,2.356598236
7.638376833,-0.348175964,-0.680035858,2.878514099,2.978173717
7.648407833,-1.222657471,-1.042881317,2.845881958,3.268262054
7.658438833,-1.458566895,-0.66806076,2.291884003,2.797580177
7.668469833,-1.374142456,-0.104033661,1.593436432,2.106687009
7.678501833,-1.299747162,0.368383942,0.431552582,1.418198521
7.688532833,-1.176403656,0.531544647,-0.559835815,1.40708259
7.698563833,-1.16188385,0.316142578,-1.43566452,1.873780357
7.708594833,-1.351389771,0.032183075,-2.112257538,2.507772312
7.718626833,-1.417103119,-0.214354248,-1.936822357,2.40944181
7.728657833,-1.308279419,-0.491727448,-1.18882782,1.834857626
7.738688833,-1.331032104,-0.681532745,-0.240549774,1.514594844
7.748719833,-1.773362274,-0.899180145,1.122964783,2.283503578
7.758750833,-2.376158752,-1.388662262,2.976260834,4.053719507
7.768782833,-2.746788025,-2.281106415,4.481829987,5.73019118
7.778813833,-2.906206512,-3.209625549,4.506828003,6.249738483
7.788844833,-2.580783234,-3.354823608,1.359323273,4.445564453
7.798875833,-1.578617249,-3.40496933,-3.103645935,4.870160844
7.808907833,-0.776285706,-4.221072235,-5.737568665,7.165177213
7.818938833,-0.559237061,-5.782475281,-5.249583435,7.829935677
7.828969833,-1.379680939,-8.982969818,2.591860199,9.450661645
7.839000833,-2.405797119,-14.54974365,9.454788666,17.51787455
7.849032833,-1.91077652,-19.88824219,6.294410706,20.94786028
7.859063833,-2.83046402,-27.80797302,2.576741638,28.07017078
7.869094833,-3.559747467,-39.71526169,-0.908760223,39.88482992
7.879125833,-5.853427734,-55.6258255,20.42742096,59.54640716
7.889157833,-2.211201782,-58.53966614,15.38815018,60.56877984
7.899188833,5.131928101,-46.78206619,3.230132904,47.17342644
7.909219833,5.760471039,-31.14303772,8.03259613,32.6740635
7.919250833,3.114573212,-24.94412842,-0.208516388,25.13868708
7.929282833,0.894988861,-23.25713654,0.07723938,23.27447896
7.939313833,-0.952619019,-23.18229218,4.156406708,23.5712085
7.949344833,-1.798959045,-22.53982819,2.740052032,22.776918
7.959375833,-2.059567108,-20.86765549,-0.210462341,20.97010149
7.969407833,-2.291884003,-17.99453018,0.256117401,18.14170457
7.979438833,-2.00672699,-14.02298904,1.747915192,14.27327511
7.989469833,-0.837209015,-10.21595581,1.913470917,10.427274
7.999500833,-0.050145721,-7.431146851,2.833158417,7.953065115
8.009532833,0.231867828,-4.850363617,1.721869354,5.152147511
8.019563833,0.447868652,-2.700234833,0.868044891,2.871472865
8.029594833,0.93495575,-0.376317444,0.614472198,1.180395338
8.039625833,1.315614166,1.747017059,1.193767548,2.491583873
8.049656833,1.800605621,3.40616684,3.250939636,5.041107186
8.059688833,1.807341614,4.231400757,3.486100616,5.772705915
8.069719833,0.839454346,3.750301208,1.027463379,3.97808041
8.079750833,-1.055006104,2.566862183,-0.989292755,2.946272136
8.089781833,-2.07333847,1.714085541,-2.90186554,3.956974256
8.099813833,-2.531086578,0.707129517,-4.531826019,5.238690532
8.109844833,-2.057621155,-0.356259155,-4.293521576,4.774416501
8.119875833,-1.785187683,-1.232536926,-2.376158752,3.217479255
8.129906833,-2.287842407,-1.828597412,0.272732849,2.941491897
8.139938833,-2.326462097,-1.610950012,2.304308167,3.649304311
8.149969833,-1.693727875,-0.570014648,2.552941132,3.116270084
8.160000833,-0.526006165,0.617915039,1.625769196,1.817037963
8.170031833,0.358803864,1.108145599,0.976718903,1.520100884
8.180063833,1.058598633,0.910556488,1.144519958,1.805455654
8.190094833,1.798210602,0.342487793,1.963616638,2.684520359
8.200125833,2.018253021,-0.133821716,2.291434937,3.056456703
8.210156833,0.800684967,-0.736169128,1.686692505,2.006981068
8.220188833,-0.085023193,-0.816102905,1.446741486,1.663223924
8.230219833,-0.306412811,-0.340392151,1.592837677,1.657373673
8.240250833,-0.503702545,0.00583786,1.125808868,1.233367724
8.250281833,-0.837209015,-0.040266266,0.016465759,0.838338493
8.260313833,-1.30348938,-0.400267639,-0.401914215,1.421560334
8.270344833,-1.876946869,-1.224753113,0.9794133,2.445853664
8.280375833,-2.487227783,-2.613115997,2.125729523,4.187290683
8.290406833,-2.952610016,-3.956721954,2.636317749,5.596760295
8.300437833,-3.030597839,-6.37928421,5.48654068,8.94326109
8.310469833,-1.707050171,-8.610394592,-0.124990082,8.778868825
8.320500833,-1.530866547,-11.52288803,0.130079498,11.62486222
8.330531833,-1.298399963,-17.41718079,13.57721603,22.12204385
8.340562833,1.518891449,-20.44777863,4.786147156,21.05530543
8.350594833,0.75233551,-25.44768127,-5.724246368,26.09439571
8.360625833,-1.589394836,-33.62352951,-0.855920105,33.67195438
8.370656833,-2.917732544,-41.64489899,15.55864563,44.55201711
8.380687833,-2.271077271,-44.07943634,16.04932526,46.96525675
8.390719833,-2.371967468,-43.54849045,6.050268402,44.03070517
8.400750833,-2.708916779,-39.18461517,5.071603546,39.60421012
8.410781833,0.931213531,-31.65347626,3.693718872,31.88186439
8.420812125,2.402503967,-27.04096802,0.371976471,27.15003394
8.430844125,1.283281403,-24.65552856,3.073408813,24.87946426
8.440875125,0.43873764,-22.69984543,5.233417053,23.29944478
8.450906125,0.019160156,-19.97895355,4.223766632,20.42055721
8.460937125,-0.644409943,-17.06032288,4.53646637,17.66492026
8.470969125,-1.511107635,-13.54473358,3.547173615,14.08281558
8.481000125,-1.171912994,-10.39543259,2.723735962,10.81004793
8.491031125,-0.958456879,-8.278684387,3.046464844,8.873342257
8.501062125,-1.572480011,-5.912255402,2.506088562,6.611197864
8.511094125,-2.665207672,-3.562591553,1.259630585,4.624073931
8.521125125,-3.372037811,-1.822310486,0.220940552,3.839305827
8.531156125,-3.081641693,0.072149963,-0.84125061,3.195218886
8.541187125,-2.365530853,2.109114075,-0.892144775,3.29241867
8.551219125,-1.133892059,2.971770172,0.619860992,3.240579702
8.561250125,0.643661499,3.998485107,2.584226074,4.80420729
8.571281125,1.443298645,4.913681946,3.17908905,6.027768114
8.581312125,-0.859812012,2.59290802,3.127745819,4.152739169
8.591344125,-2.653981018,-2.054477692,2.298619995,4.067941459
8.601375125,-2.135010223,-3.980971527,-0.848435669,4.596329627
8.611406125,-0.415685577,-3.302133179,-2.310744781,4.051718089
8.621437125,0.888252869,-2.04534668,-1.3549823,2.609293627
8.631468125,1.063538361,-0.757873993,1.164727936,1.749879424
8.641500125,1.362915802,0.502205658,2.566113739,2.948675928
8.651531125,1.595083008,1.241069183,1.936672668,2.799150504
8.661562125,1.273401947,1.34794693,0.772543488,2.008814796
8.671594125,0.749790802,0.94663147,0.341739349,1.255023175
8.681625125,0.185015259,0.474363556,0.191751251,0.544077174
8.691656125,-0.181871796,0.296832733,-0.101189575,0.362527725
8.701687125,-0.197439423,0.244890747,-0.114811249,0.334866281
8.711718125,0.279768219,0.334853668,-0.153430939,0.462534635
8.721750125,0.449814606,0.096549225,-0.368084564,0.589186879
8.731781125,0.333805847,-0.28785141,-0.643212433,0.779748044
8.741812125,0.300425262,-0.522713013,-0.736468506,0.95177208
8.751843125,0.521066437,-0.229772186,-0.451760559,0.726906522
8.761875125,0.827778625,0.364791412,-0.065413971,0.906956016
8.771906125,0.655786285,0.308658142,-0.702489166,1.009364419
8.781937125,0.139958954,0.018860779,-2.542313232,2.54623267
8.791968125,-0.417332153,-0.268990631,-2.279459839,2.332907894
8.802000125,-0.89274353,-1.115779724,1.817969513,2.312351304
8.812031125,-0.277223511,-2.520159302,2.002086639,3.230542786
8.822062125,-0.367635498,-7.117698669,6.287075958,9.503899953
8.832093125,-0.40011795,-18.81302811,21.27720383,28.40439268
8.842125125,1.07536377,-26.97136276,10.53658905,28.97637875
8.852156125,-1.617236938,-31.95450027,-12.47715363,34.34217386
8.862187125,-5.535937958,-43.77362228,-4.164040833,44.31834669
8.872218125,-13.31705704,-67.8498555,31.50004532,75.9815751
8.882250125,-15.29429535,-62.74352417,13.14491501,65.90488666
8.892281125,-14.56246719,-45.03519882,2.906356201,47.42026455
8.902312125,-5.249733124,-31.34586594,10.68298462,33.52982507
8.912343125,3.209924927,-24.57364883,0.333356781,24.78465174
8.922375125,8.678203583,-20.94654144,-2.440973969,22.80410423
8.932406125,10.36684204,-17.97507065,1.413660278,20.7983897
8.942437125,7.474706268,-18.17625229,4.312681732,20.1208003
8.952468125,5.416186981,-17.26374985,3.747906189,18.47752529
8.962500125,3.110681305,-15.13218246,2.505340118,15.65043173
8.972531125,0.351169739,-11.74667267,3.192261658,12.17777375
8.982562125,-0.899180145,-7.548951874,4.419110413,8.793391619
8.992593125,-1.497935028,-4.218826904,3.623664551,5.75962278
9.002625125,-1.467398529,-2.125130768,2.089953918,3.322250232
9.012656125,-0.884959717,0.239052887,0.956810303,1.32506073
9.022687125,-0.247734833,1.915566559,-0.402063904,1.972922495
9.032718125,0.01526825,2.534679108,-1.056952057,2.746266365
9.042750125,0.24459137,2.788850555,-1.216669922,3.052506848
9.052781125,0.39083725,2.98254776,-1.378782806,3.308985785
9.062812125,0.233664093,2.910996552,-0.824635162,3.034554824
9.072843125,-0.466280365,2.941682739,-0.041314087,2.978694609
9.082875125,-1.726809082,3.276985474,-0.157322845,3.707459221
9.092906125,-3.161425781,3.547622681,-0.149389343,4.754214639
9.102937125,-2.718945923,2.097288666,0.92792038,3.557010389
9.112968125,-0.662372589,-0.029039612,1.893562317,2.006279889
9.123000125,0.447569275,-1.23672821,2.746638336,3.045297534
9.133031125,0.88346283,-1.694176941,3.708987122,4.172208953
9.143062125,0.545465698,-1.595681763,3.85897522,4.211344543
9.153093125,-0.519868927,-1.295855255,3.470982056,3.741286005
9.163125125,-1.111738129,-0.76520874,2.683918762,3.004151462
9.173156125,-0.919986877,0.040865021,1.633253632,1.874983528
9.183187125,-0.899479523,0.266445923,0.713117065,1.178385671
9.193218125,-1.0577005,0.233065338,-0.137563934,1.091775452
9.203250125,-1.074765015,0.375718689,-0.648750916,1.310405327
9.213281125,-0.980461121,0.234412537,-0.833017731,1.307735365
9.223312125,-0.82134201,-0.036973114,-1.03554657,1.322242946
9.233343125,-0.761017456,-0.386196899,-1.18059494,1.456742951
9.243375125,-0.654139709,-0.785267029,-1.119671631,1.515984046
9.253406125,-0.47855484,-1.044976959,-0.457299042,1.236977766
9.263437125,-0.016615448,-1.506167908,1.466799774,2.102455568
9.273468125,0.455652466,-2.315983887,3.263812866,4.027887158
9.283500125,-0.375718689,-3.94789032,4.000730438,5.633191507
9.293531125,-2.017504578,-6.219416656,4.372257843,7.865628196
9.303562125,-2.351460114,-7.618706818,-1.529070282,8.118627604
9.313593125,-3.507057037,-12.55005203,0.371228027,13.03614457
9.323625125,-3.92334137,-20.39912979,10.08782227,23.09288336
9.333656125,-3.700754242,-28.61284927,13.13398773,31.70003721
9.343687125,-1.503174133,-35.97319336,2.013313293,36.06083198
9.353718125,0.654289398,-37.87753326,-7.261100464,38.57277798
9.363750125,-1.17011673,-51.02499298,20.06247986,54.83996882
9.373781125,-3.654650116,-56.36064743,15.92957428,58.68245379
9.383812125,-2.815495148,-43.57633255,-2.400857391,43.73314404
9.393843125,2.217788086,-29.66141876,3.441044312,29.9425973
9.403875125,4.347110138,-23.76293472,3.94205246,24.47680965
9.413906125,4.424948273,-22.09989304,3.076552277,22.74754082
9.423937375,3.717220001,-21.11344437,5.293891296,22.08213175
9.433968375,1.989961853,-19.58182938,6.188730469,20.63270159
9.444000375,0.753233643,-18.01608536,5.210814056,18.76963707
9.454031375,-0.416883087,-15.66911591,3.406316528,16.0405105
9.464062375,-1.32459549,-12.30531097,2.972368927,12.72832308
9.474093375,-2.029928741,-8.78029129,2.634970551,9.389206337
9.484125375,-2.683769073,-6.152655487,2.088307343,7.029851602
9.494156375,-3.345093842,-3.430566101,1.150357819,4.927652554
9.504187375,-3.698059845,-0.624501343,0.092657318,3.751564197
9.514218375,-3.164868622,1.500779114,-1.363813934,3.758818935
9.524250375,-2.617307281,2.476749573,-1.688189392,3.979267429
9.534281375,-1.746567993,3.081941071,-0.193397827,3.547712395
9.544312375,-0.587528229,3.614832916,2.142045593,4.242707362
9.554343375,0.379909973,4.179309082,4.833149414,6.400803797
9.564375375,-0.138312378,3.868106232,4.574038239,5.991928065
9.574406375,-3.486549683,-0.194295959,2.302062836,4.182496014
9.584437375,-3.385360107,-3.386108551,0.739911346,4.844983279
9.594468375,-2.543361053,-3.613485718,-1.139280853,4.563323936
9.604500375,-1.540446625,-2.092798004,-2.661166077,3.719487085
9.614531375,-0.132624207,-0.346230011,-1.621278534,1.663132131
9.624562375,-0.386645966,0.186362457,0.20821701,0.477053867
9.634593375,-0.79679306,0.356109467,1.566642151,1.793337883
9.644625375,-1.207089844,0.365240479,2.383343811,2.696441028
9.654656375,-1.590891724,0.133073273,2.325264587,2.820549658
9.664687375,-1.635349274,-0.039667511,1.935624847,2.534281813
9.674718375,-1.722168732,-0.26794281,1.348695374,2.203778052
9.684750375,-1.394649811,-0.276624756,0.488733673,1.503472631
9.694781375,-0.728385315,-0.14160553,-0.07020401,0.745336096
9.704812375,-0.073048096,-0.249082031,-0.188158722,0.320595676
9.714843375,0.229622498,-0.550106049,-0.568817139,0.823951512
9.724875375,0.256716156,-0.847836914,-0.856369171,1.232111511
9.734906375,0.346679077,-1.063987427,-0.725990295,1.333910618
9.744937375,0.571810913,-1.428329773,-0.120948486,1.543282928
9.754968375,0.662073212,-2.331102448,1.100511475,2.6614855
9.765000375,0.279768219,-3.885320435,2.57539444,4.669758201
9.775031375,-0.430504761,-5.699847107,4.219725037,7.104904699
9.785062375,-1.002914429,-7.696395264,6.301895142,9.997710727
9.795093375,0.324974213,-8.710236969,0.813707886,8.754196526
9.805125375,0.380059662,-12.1098175,-1.911375275,12.26562191
9.815156375,-1.570683746,-22.03043747,14.22686508,26.27186542
9.825187375,-1.00515976,-25.49019287,0.711320801,25.51991881
9.835218375,-2.07453598,-29.20935883,-7.393275604,30.20183549
9.845250375,-2.471360779,-30.7836351,-1.310075684,30.91045313
9.855281375,-3.743714905,-34.66386612,12.56846375,37.06164185
9.865312375,-2.40564743,-38.59978134,14.88160355,41.43902006
9.875343375,2.331701202,-37.03418701,5.272036743,37.48015754
9.885375375,5.74625061,-33.50871826,7.326215057,34.77825503
9.895406375,7.234306183,-30.02097107,8.287965088,31.97318025
9.905437375,6.217620392,-28.17441101,5.787864075,29.42712371
9.915468375,2.759960632,-27.00219864,5.589376831,27.71240241
9.925500375,-0.760269012,-26.58321991,6.077212372,27.27962793
9.935531375,-1.043929138,-23.50082977,6.019582214,24.28197187
9.945562375,0.624201965,-18.98187698,5.71825882,19.8343078
9.955593375,2.106868744,-14.46995956,4.108805695,15.18884163
9.965625375,2.480641479,-9.676926727,2.779569855,10.36930574
9.975656375,1.644031219,-5.756130066,2.470911713,6.476208511
9.985687375,-0.494571533,-3.881727905,1.351689148,4.139985034
9.995718375,-3.102448425,-2.692301331,-0.94663147,4.215422141
10.00575038,-4.242926788,-1.417552185,-2.121837616,4.951169235
10.01578137,-4.237088928,-0.09355545,-2.161954193,4.757701245
10.02581238,-3.459006958,1.142274628,-0.984203339,3.773350855
10.03584438,-2.816542969,1.925446014,0.667162628,3.476400814
10.04587538,-1.711391144,2.928659821,3.234473877,4.686974424
10.05590637,-1.121617584,3.651207275,6.299051056,7.366639992
10.06593738,-2.750230865,1.124611359,5.75328598,6.475246721
10.07596838,-3.021466827,-1.543739777,2.00672699,3.941997907
10.08600038,-2.498454437,-2.099533997,-1.783690796,3.719122267
10.09603137,-1.780697021,-0.849782867,-3.387006683,3.919799367
10.10606238,-1.273551636,0.274678802,-2.816243591,3.10300019
10.11609438,-1.219364319,0.048050079,-0.533191223,1.331709815
10.12612538,-0.772842865,-0.541424103,1.511856079,1.782171416
10.13615637,-0.3662883,-0.943338318,1.795665894,2.061181773
10.14618738,-0.206121368,-1.427581329,1.385518799,2.000034203
10.15621937,0.390986938,-1.336720276,1.264420624,1.88107719
10.16625038,0.806373138,-1.075214081,1.29181366,1.864163482
10.17628137,0.816252594,-0.869841156,1.413809967,1.849797437
10.18631238,0.75233551,-0.54292099,1.511856079,1.773832215
10.19634437,0.925225983,-0.150287476,1.432820435,1.7121927
10.20637538,1.197509766,0.084574127,0.940943298,1.525305449
10.21640637,1.207089844,-0.010178833,0.002993774,1.207136472
10.22643738,1.121467896,-0.21644989,-0.750838623,1.366857503
10.23646937,0.846190338,-0.469124451,-0.897234192,1.319524548
10.24650038,0.29608429,-0.927471313,-0.427810364,1.063433426
10.25653137,0.208516388,-1.44269989,0.600401459,1.576497374
10.26656238,0.120349731,-2.537672882,0.928818512,2.704990119
10.27659437,-0.481997681,-3.568429413,-0.530496826,3.639702889
10.28662538,-1.348096619,-4.259542236,-0.865649872,4.550869615
10.29665637,-1.244062958,-4.969066772,-0.945583649,5.208977411
10.30668738,-0.607586517,-6.166576538,-2.905158691,6.843666751
10.31671937,-3.624412994,-12.72653503,9.065298615,16.03997202
10.32675038,-2.351310425,-21.03231308,17.64740204,27.55571906
10.33678138,1.549877014,-23.83478531,2.403551788,24.00575287
10.34681238,1.524280243,-26.68216415,-7.615263977,27.78945051
10.35684437,0.267044678,-30.89126129,-0.095052338,30.89256176
10.36687538,-3.054697723,-38.99211548,15.8682019,42.20800966
10.37690638,-5.894592133,-43.19088409,13.92599075,45.76168598
10.38693738,-2.109413452,-40.62372253,8.671916656,41.59253053
10.39696937,1.816322937,-34.05972244,7.867938538,35.00383091
10.40700038,4.175417175,-27.4419841,6.486311646,28.50559311
10.41703138,4.437522125,-24.80791168,2.098037109,25.28884822
10.42706233,2.42675354,-24.02488998,2.227667542,24.24967988
10.43709433,-0.550704803,-24.15437073,2.415826263,24.28112678
10.44712533,-2.50279541,-23.08738953,2.494562531,23.35624932
10.45715633,-3.326083374,-20.55615326,2.909200287,21.02573931
10.46718733,-3.596720581,-17.0745433,2.649190979,17.64921077
10.47721933,-3.830684052,-13.63858841,1.993255005,14.30588339
10.48725033,-3.672014008,-10.09186386,2.471809845,11.01994768
10.49728133,-2.670596466,-7.201374664,3.346890106,8.378159459
10.50731233,-1.510658569,-5.005441132,3.309318237,6.187739283
10.51734433,-1.309925995,-2.912194061,2.727777557,4.199708414
10.52737533,-2.020198975,-1.425785065,1.043031006,2.683650616
10.53740633,-2.091899872,-0.005388794,0.083825684,2.093585646
10.54743733,-1.574875031,1.334924011,0.063468018,2.065497922
10.55746933,-1.24735611,2.497107239,-0.342338104,2.812229934
10.56750033,-1.198407898,2.746338959,-0.285007324,3.009948229
10.57753133,-0.84244812,2.879861298,0.294737091,3.014994176
10.58756233,-0.390537872,2.548151093,1.50122818,2.983166081
10.59759433,-0.664917297,0.83421524,3.604504395,3.75905334
10.60762533,-1.307680664,-2.213147736,5.197641449,5.798579848
10.61765633,-1.932032318,-4.010160828,5.393134918,6.992856569
10.62768833,-2.717299347,-3.89175705,2.792592773,5.50709207
10.63771933,-2.533032532,-2.209555206,-0.945883026,3.491859493
10.64775033,-2.450254669,-0.703836365,-3.715723114,4.506188171
10.65778133,-2.377356262,0.009131012,-3.45062439,4.190312023
10.66781333,-2.386487274,0.127684479,-1.670226746,2.915695838
10.67784433,-1.816921692,0.467926941,0.232167206,1.890518889
10.68787533,-1.30932724,0.719254303,1.07416626,1.839972208
10.69790633,-0.833616486,0.69500473,1.455124054,1.815305493
10.70793833,-0.321381683,0.414338379,1.655557251,1.736615182
10.71796933,0.119750977,0.286204834,1.873054962,1.898575359
10.72800033,0.32063324,0.333207092,2.116598511,2.166522997
10.73803133,0.381107483,0.16151413,1.84760788,1.893405557
10.74806333,0.501457214,-0.034278717,1.066831512,1.17930651
10.75809433,0.68452652,-0.164358215,0.74649765,1.026084266
10.76812533,0.651445313,-0.75353302,1.180445251,1.544553009
10.77815633,0.365988922,-1.874252472,0.917741547,2.118730697
10.78818833,0.011226654,-3.488495636,-0.311651917,3.502406995
10.79821933,-0.705632629,-5.754782867,1.266815643,5.934666388
10.80825033,-1.330583038,-8.383167114,5.186564484,9.947280695
10.81828133,-1.709295502,-11.57962006,6.676416321,13.47530432
10.82831333,-2.390379181,-16.54808807,9.396110687,19.17915607
10.83834433,-1.458866272,-21.92415848,7.930209045,23.35990649
10.84837533,-1.169218597,-25.97593277,-1.435963898,26.04185377
10.85840633,-2.801125031,-27.60155228,-10.94059891,29.82262051
10.86843833,-4.690346375,-32.15014343,5.187312927,32.90196479
10.87846933,-5.948480072,-36.04279861,17.34892273,40.44073277
10.88850033,-3.532055054,-36.39381866,3.789070587,36.76061079
10.89853133,1.103804626,-35.82320526,0.073796539,35.84028272
10.90856333,4.340374146,-34.37511658,6.19322113,35.19720835
10.91859433,6.879693604,-30.62077377,4.042343903,31.64336447
10.92862533,6.329437866,-27.26370483,2.50519043,28.10066483
10.93865633,4.014801178,-25.19680298,4.144581299,25.84908244
10.94868833,0.504450989,-24.49356537,4.616549835,24.92993678
10.95871933,-2.090402985,-22.98320618,5.199437714,23.65653617
10.96875033,-2.437680817,-19.68571335,5.586682434,20.60778053
10.97878233,-2.015408936,-16.14482666,3.93845993,16.74003488
10.98881333,-1.859133911,-12.89762924,2.47121109,13.26318601
10.99884433,-2.032323761,-9.999056854,2.555186462,10.5185767
11.00887533,-2.326013031,-7.466772766,2.654280396,8.258827797
11.01890733,-3.593876495,-5.431904297,1.478625183,6.678911961
11.02893833,-4.328698425,-2.766546936,0.393531647,5.152308139
11.03896933,-4.024081879,0.086370392,-0.065114594,4.025535333
11.04900033,-3.519780579,1.954934692,-0.552052002,4.063912694
11.05903233,-2.61625946,3.282973022,-0.774339752,4.268761821
11.06906333,-1.459764404,3.876189423,0.442030792,4.165470895
11.07909433,-0.217348022,4.279750214,2.274071045,4.851278303
11.08912533,0.289198608,4.615801392,4.117188263,6.191970406
11.09915733,-1.62636795,2.586471405,4.696483612,5.602844399
11.10918833,-2.884052582,-1.719174957,3.629502411,4.94435128
11.11921933,-1.269959106,-3.136128387,-1.174906769,3.581690008
11.12925033,-0.56163208,-2.759361877,-6.000422058,6.628316033
11.13928233,-0.186961212,-1.999392242,-6.198160858,6.515345107
11.14931333,0.471070404,-1.109792175,-3.024011536,3.25548641
11.15934433,0.896036682,-0.351768494,0.579295349,1.123479377
11.16937533,1.205742645,0.046104126,2.647544403,2.909541593
11.17940733,1.382525024,0.125139771,2.769989777,3.098367113
11.18943833,1.54808075,0.128432922,2.07453598,2.591669068
11.19946933,1.692829742,0.171094208,1.692979431,2.400234388
11.20950033,1.649719391,0.036823425,1.459165649,2.202747018
11.21953233,1.513951721,-0.147144012,1.842368774,2.389147102
11.22956333,0.837059326,-0.647852783,2.427801361,2.648509202
11.23959433,0.311801605,-1.037342834,2.724634094,2.932052412
11.24962533,-0.372724915,-1.326242065,2.494113464,2.849288306
11.25965733,-0.921184387,-1.359472961,2.245929565,2.782255743
11.26968833,-1.255738678,-1.300495605,2.442321167,3.038601838
11.27971933,-1.494342499,-1.413360901,3.425326996,3.995436593
11.28975133,-1.757195892,-2.193987579,5.811514893,6.455619587
11.29978233,-2.714455261,-4.042792969,8.383765869,9.695358297
11.30981333,-3.535497894,-6.49634079,9.279054108,11.86604543
11.31984433,-3.085234222,-8.829538879,5.041965179,10.62548069
11.32987633,-0.511486359,-9.525292053,-5.221142578,10.87442582
11.33990733,-0.879271545,-12.13960556,-7.594756622,14.34654905
11.34993833,-4.990023193,-21.03904907,18.07281738,28.18099795
11.35996933,-3.776646423,-22.71286835,7.844587097,24.32437036
11.37000133,-0.472417603,-23.17076614,-7.471263428,24.35009978
11.38003233,0.591869202,-29.12717972,-7.469467163,30.07550244
11.39006333,-0.178428955,-35.1365831,7.287445679,35.88479028
11.40009433,2.394869843,-35.15858734,8.124505005,36.16447493
11.41012633,3.165617065,-32.26615219,-1.488055573,32.45520017
11.42015733,3.290158081,-32.49337967,3.485052795,32.84494566
11.4301885,4.161795502,-34.31554047,8.565937042,35.61252781
11.4402195,3.507655792,-33.59598679,9.213490448,35.01260321
11.4502515,-0.289497986,-30.4227356,4.896318054,30.8155899
11.4602825,-3.026256866,-26.94097595,4.380191345,27.46198267
11.4703135,-3.956721954,-23.36161926,4.033661957,24.03521025
11.4803445,-2.699636078,-19.31703003,3.16277298,19.75952472
11.4903765,-1.299298096,-14.7959816,3.453917542,15.24922271
11.5004075,-0.577798462,-10.93655731,2.960244141,11.34483064
11.5104385,-0.285306702,-8.31116684,1.794767761,8.507531103
11.5204695,-0.853375397,-6.035449219,1.0285112,6.181644775
11.5305015,-1.962718506,-3.750750275,0.815055084,4.3109983
11.5405325,-2.964136047,-1.549278259,0.510438538,3.383328706
11.5505635,-3.42487793,0.491278381,0.319884796,3.474689851
11.5605955,-3.336561584,2.602488098,-0.149089966,4.234125096
11.5706265,-2.828667755,3.734434204,-0.402213593,4.70203529
11.5806575,-2.052082672,3.994593201,0.906065826,4.58135061
11.5906885,-0.495918732,3.673810272,3.458408203,5.069852523
11.6007205,0.625848541,1.203048248,5.411097565,5.578439597
11.6107515,-0.009280701,-2.689906311,5.791456604,6.385659848
11.6207825,-0.754131775,-5.014871521,4.384682007,6.703960576
11.6308135,-1.059197388,-4.949906616,1.681154022,5.33383103
11.6408455,-1.355730743,-3.16621582,-1.57607254,3.787734563
11.6508765,-1.143472137,-1.080303497,-2.898871765,3.298187637
11.6609075,-0.845591583,0.42242157,-1.44150238,1.723773251
11.6709385,-0.790057068,1.207089844,0.568817139,1.550744659
11.6809705,-0.534987488,1.459914093,1.20289856,1.965839697
11.6910015,0.020806732,1.272354126,1.39824234,1.890608258
11.7010325,0.322728882,1.0975177,1.670526123,2.024686781
11.7110635,0.384550323,0.708626404,1.735341339,1.913488932
11.7210955,0.151035919,0.193846893,1.58894577,1.607836163
11.7311265,-0.493523712,-0.389040985,0.88106781,1.082219492
11.7411575,-0.903820496,-0.703387299,0.119152222,1.151452314
11.7511885,-0.850681,-0.756826172,-0.51133667,1.248162332
11.7612205,-0.450113983,-0.919088745,-0.554447021,1.163932223
11.7712515,-0.478854218,-1.195114746,-0.423170013,1.35523927
11.7812825,-0.753083954,-1.382824402,-0.224533081,1.590520001
11.7913145,-0.762214966,-1.419947205,0.620459747,1.726902434
11.8013455,-0.778830414,-2.193688202,2.208956451,3.209101641
11.8113765,-1.092727661,-3.858526154,4.359534302,5.923497037
11.8214075,-1.580563202,-6.425538025,7.083270264,9.693216008
11.8314395,-1.735491028,-9.482181702,7.241491241,12.05665353
11.8414705,-0.067210236,-11.32170639,-3.482957153,11.84552841
11.8515015,0.664917297,-15.40880722,-7.086413727,16.97323524
11.8615325,-2.330503693,-24.85491394,20.18941589,32.10623785
11.8715645,0.371677094,-25.51818466,16.62442932,30.45796353
11.8815955,1.062789917,-26.88783646,-8.811276855,28.31472888
11.8916265,1.273401947,-28.61314865,-11.77211975,30.96637905
11.9016575,1.779798889,-30.23173279,7.060068512,31.09613993
11.9116895,1.460063782,-33.78833679,16.34645737,37.56314893
11.9217205,3.174598389,-31.49405777,-1.243015137,31.67804976
11.9317515,1.682950287,-31.69044937,-1.256487122,31.7599695
11.9417825,0.80038559,-31.30065994,6.927144928,32.06801002
11.9518145,-1.461261292,-30.43426163,7.797884216,31.45133644
11.9618455,-3.944297791,-29.2282196,3.942351837,29.75547755
11.9718765,-4.282893677,-25.69526642,6.62971344,26.88015987
11.9819085,-4.41117691,-21.30893784,7.306605835,22.95464664
11.9919395,-2.890938263,-18.10095886,6.077062683,19.31147137
12.0019705,-0.712368622,-15.67345688,4.148473206,16.22881849
12.0120015,1.218915253,-13.20269485,2.627186737,13.51661999
12.0220335,2.377206573,-10.05144791,0.775986328,10.35784103
12.0320645,1.829345856,-7.10707077,-0.005089417,7.338731981
12.0420955,0.696800995,-4.484225006,0.737666016,4.597603363
12.0521265,-0.511636047,-2.357297974,0.948427734,2.591937567
12.0621585,-1.624272308,-0.873134308,0.800684967,2.010403061
12.0721895,-2.369123383,0.796493683,1.179547119,2.763779875
12.0822205,-2.318827972,2.580633545,1.152902527,3.655929006
12.0922515,-2.211950226,3.178789673,0.726439362,3.940195646
12.1022835,-1.45677063,3.395239563,0.767304382,3.773405408
12.1123145,-0.836759949,3.460952911,1.383722534,3.820085119
12.1223455,-0.121996307,3.443289642,2.568209381,4.297304514
12.1323765,-0.915945282,1.100062408,3.205583954,3.510678218
12.1424085,-1.512754211,-2.146685944,2.915038147,3.923535809
12.1524395,-1.355431366,-3.254382477,1.178798676,3.717225553
12.1624705,-1.709894257,-3.232527924,-0.943488007,3.776657883
12.1725025,-1.591191101,-1.956581268,-1.869163055,3.139087432
12.1825335,-1.509311371,-0.677940216,-2.102078705,2.675137124
12.1925645,-1.443747711,-0.079634399,-1.265468445,1.921499278
12.2025955,-0.653690643,0.462987213,1.14556778,1.397853409
12.2126275,-0.125439148,0.727337494,2.617157593,2.719240459
12.2226585,-0.110170898,0.701890411,2.459086304,2.559666624
12.2326895,-0.492176514,0.31823822,2.336491241,2.408880364
12.2427205,-0.885109406,-0.174836426,2.402503967,2.566322612
12.2527525,-1.209933929,-0.642913055,1.93412796,2.370259116
12.2627835,-0.989292755,-1.17475708,1.399739227,2.077985625
12.2728145,-0.534987488,-1.634900208,0.891695709,1.937583944
12.2828455,-0.060025177,-1.757644958,0.528550873,1.836378187
12.2928775,0.427660675,-2.052082672,1.226549377,2.428654014
12.3029085,0.669108582,-3.161725159,3.075803833,4.461477501
12.3129395,0.489482117,-5.138664093,4.343068542,6.745939947
12.3229705,0.216749268,-7.776329041,4.063899078,8.776875829
12.3330025,-0.047451324,-10.55784485,3.233725433,11.04207044
12.3430335,0.739611969,-12.8224855,-2.017654266,13.00131105
12.3530645,-0.020357666,-17.37496857,1.974244537,17.48678326
12.3630965,-0.833616486,-21.597388,12.72788223,25.08268469
12.3731275,0.138761444,-23.07751007,3.901786194,23.40544085
12.3831585,-0.474513245,-26.00497238,-6.359674988,26.77553393
12.3931895,-1.661245422,-28.73394745,-0.202678528,28.78264322
12.4032215,-3.09601181,-32.62480637,9.446705475,34.10576966
12.4132525,-1.738185425,-33.92799637,8.117469635,34.92883536
12.4232835,0.450263672,-31.42370407,-0.172740784,31.42740451
12.433314,2.159858551,-27.47102371,3.606300659,27.79078151
12.443346,3.910168762,-25.49034256,8.184081116,27.0559821
12.453377,3.044219513,-25.06492722,5.174739075,25.77393593
12.463408,0.983155518,-23.97669022,6.418053589,24.84028342
12.473439,-1.283880157,-23.26222595,8.048912201,24.64882334
12.483471,-2.42914856,-21.37375305,5.204676819,22.1320298
12.493502,-2.332150269,-18.89999725,3.14870224,19.3018949
12.503533,-1.667831726,-16.60691574,2.433040466,16.86686097
12.513565,-1.542392578,-14.01625305,0.714314575,14.11894365
12.523596,-1.518292694,-10.3222348,-0.282163239,10.43711455
12.533627,-1.706900482,-6.831493835,0.822240143,7.089350896
12.543658,-2.678679657,-4.535717926,2.047142944,5.651447252
12.55369,-3.643273773,-2.46297821,1.498533783,4.645999241
12.563721,-3.777843933,-0.799487457,0.601149902,3.908025868
12.573752,-3.706891479,0.302371216,0.345631256,3.735228742
12.583783,-3.320993958,1.28822113,0.023052063,3.562168714
12.593815,-2.427501984,2.006577301,-0.210462341,3.156487406
12.603846,-1.755399628,1.937271423,0.059875488,2.614963383
12.613877,-0.577199707,2.164349213,1.363215179,2.622198055
12.623908,0.165705414,1.843566284,3.520379333,3.977344036
12.63394,-1.454076233,-0.871936798,5.106331329,5.38044897
12.643971,-2.243534546,-3.31725174,4.499942322,6.023876431
12.654002,-2.364632721,-3.619772644,2.512674866,5.000777628
12.664033,-1.758393402,-1.830393677,0.028141479,2.538322342
12.674065,-1.075214081,-0.195792847,-2.324366455,2.568481959
12.684096,-0.934356995,0.152233429,-3.200045471,3.33713785
12.694127,-1.156495056,-0.11466156,-1.889371033,2.218186419
12.704159,-0.91145462,-0.10178833,-0.555045776,1.072001028
12.71419,-0.240400085,-0.054037628,0.179776154,0.305011035
12.724221,0.275427246,0.183069305,0.466729431,0.572023514
12.734252,0.555045776,0.40954834,0.740061035,1.011679787
12.744284,0.916544037,0.397423553,1.071022797,1.464611991
12.754315,1.48595993,0.412691803,1.492845612,2.146387537
12.764346,1.898052979,0.389040985,1.930535431,2.735127976
12.774377,1.87095932,-0.268541565,1.955084381,2.719367259
12.784409,1.616488495,-1.708397369,2.026785278,3.104756865
12.79444,0.98525116,-3.43655365,2.026785278,4.109559514
12.804471,0.793799286,-5.104684753,1.749561768,5.454254314
12.814503,0.649499359,-7.245083771,1.801653442,7.493933773
12.824534,0.632135468,-8.937913513,-1.582509155,9.098913586
12.834565,0.80382843,-11.16842514,-3.115171967,11.622571
12.844596,-0.430055695,-16.51665344,8.049660645,18.37884178
12.854628,-0.33694931,-21.47254761,13.15509384,25.18412853
12.864659,-0.959355011,-24.42291229,6.628815308,25.32469544
12.87469,-0.809965668,-29.25202011,-0.484991455,29.26725033
12.884721,0.006286926,-33.11952759,-1.762434998,33.16638847
12.894753,0.56163208,-34.95366348,8.125253448,35.8900232
12.904784,1.056353302,-34.11615509,7.123386841,34.86790158
12.914815,1.249152374,-30.41794556,-1.178798676,30.46639722
12.924846,3.023562469,-25.12510208,-0.167052612,25.30692773
12.934878,2.861000519,-24.78201553,5.947132874,25.64570154
12.944909,-1.460961914,-27.37806702,4.445006561,27.77500759
12.95494,-4.659211121,-27.1686525,5.848937073,28.17896364
12.964972,-6.007307739,-23.78404083,5.620063019,25.16651452
12.975003,-5.579347687,-18.6048111,4.388124847,19.91290426
12.985034,-3.978576508,-14.82696716,4.015250244,15.86790033
12.995065,-2.212099915,-12.24708206,2.110012207,12.62285849
13.005097,-0.429906006,-9.286239166,0.602796478,9.315708273
13.015128,0.593066711,-6.490053864,1.237626343,6.633569645
13.025159,-0.711320801,-4.572541351,1.546284485,4.879047796
13.03519,-1.738035736,-2.897374878,1.782493286,3.820056507
13.045222,-2.975662079,-1.579216003,1.692530365,3.770032762
13.055253,-3.67755249,-0.746647339,0.909059601,3.861122107
13.065284,-3.059338074,0.270637207,0.593366089,3.128078845
13.075316,-2.085762634,1.423539734,0.683029633,2.615989415
13.085347,-0.725690918,1.673070831,1.082848206,2.120932236
13.095378,0.608334961,1.886676636,2.125280457,2.906275481
13.105409,1.167422333,1.464704132,3.562292175,4.024693608
13.115441,0.635578308,-0.801283722,4.213587799,4.3359356
13.125472,-1.786534882,-3.923640747,4.178261261,6.00370975
13.135503,-2.981949005,-4.537364502,3.609893188,6.520047954
13.145534,-2.785407715,-3.255729675,1.591640167,4.570731919
13.155566,-1.670376434,-1.436712341,-0.931662598,2.39213189
13.165597,-0.597407684,0.141755219,-2.658920746,2.728891719
13.175628,-0.06316864,0.489332428,-3.311114502,3.347673184
13.18566,0.204325104,-0.024848328,-2.956950989,2.964106162
13.195691,0.483943634,-0.100291443,-2.246079254,2.29981126
13.205722,0.739761658,-0.038320313,-1.133592682,1.354159564
13.215753,1.110989685,0.203277283,0.40715332,1.20058051
13.225785,1.665436707,0.590671692,1.78443924,2.511333485
13.235816,2.233954468,0.850980377,2.515518951,3.470238574
13.245847,2.448009338,0.63423111,2.269281006,3.397739705
13.255878,2.507136383,-0.097297668,2.11195816,3.279568104
13.26591,1.922152863,-1.828747101,3.171305237,4.134750838
13.275941,1.11278595,-3.87529129,4.358187103,5.937168516
13.285972,0.873882751,-5.67724411,4.622387695,7.373007511
13.296003,0.463286591,-7.651937714,4.279899902,8.77976813
13.306035,0.214503937,-9.253607025,0.239651642,9.259194772
13.316066,0.109422455,-11.34775223,-3.762276306,11.95567551
13.326097,-1.864672394,-15.76087509,5.342240753,16.74579718
13.336129,-3.052901459,-20.27039749,18.05096283,27.31385145
13.34616,-2.335892487,-22.60898438,12.63268021,26.00398388
13.356191,-3.126847687,-25.94180374,0.386795654,26.13243136
13.366222,-3.946393433,-28.35972565,-9.327403564,30.11392564
13.376254,-2.888692932,-28.28727631,0.559536438,28.43989502
13.386285,0.063617706,-24.86090149,4.705764313,25.30242454
13.396316,2.568209381,-21.87356369,0.53828064,22.03039341
13.406347,4.826263733,-22.18057526,0.647403717,22.70880604
13.416379,5.339696045,-24.44716187,3.803889771,25.31097893
13.42641008,1.893562317,-28.53141861,5.967041473,29.21015252
13.43644108,-1.739832001,-30.20029816,5.028343506,30.66544085
13.44647308,-4.685406647,-29.17463104,5.47246994,30.05095771
13.45650408,-6.215225372,-25.55695404,7.287445679,27.29274246
13.46653508,-4.083358612,-20.09391449,4.940775604,21.09147886
13.47656608,-1.077160034,-16.77815964,3.355422363,17.14426358
13.48659808,1.109492798,-14.91034378,3.672014008,15.39587649
13.49662908,2.997067566,-12.89718018,2.487078094,13.47238761
13.50666008,3.920796661,-10.27643005,1.348246307,11.08130991
13.51669108,3.431015167,-7.519612885,1.42862915,8.387933253
13.52672308,1.251846771,-5.481151886,1.527573395,5.826115929
13.53675408,-1.069825287,-4.066294098,1.368454285,4.421757678
13.54678508,-2.56716156,-2.672841797,1.288520508,3.923606357
13.55681708,-3.403472443,-1.100212097,0.836011505,3.673282805
13.56684808,-3.306773529,0.377365265,0.817150726,3.427081999
13.57687908,-3.037483521,1.329535217,0.499211884,3.353085525
13.58691008,-2.611170044,1.882185974,0.108674011,3.220658796
13.59694208,-1.665436707,2.339784393,0.554896088,2.925094887
13.60697308,-0.736767883,2.548151093,1.516047363,3.055208751
13.61700408,0.243543549,2.368824005,1.930834808,3.065740316
13.62703508,-0.322279816,0.314645691,1.706750793,1.765181141
13.63706708,-1.540296936,-2.090852051,1.489702148,2.993892022
13.64709808,-2.052232361,-2.702180786,0.104482727,3.394754086
13.65712908,-1.867366791,-1.992955627,-1.584754486,3.157590481
13.66716108,-1.183139648,-1.352886658,-2.092498627,2.758382178
13.67719208,-0.006885681,-1.276246033,-1.222807159,1.767514837
13.68722308,0.900377655,-1.342857513,0.546812897,1.706736818
13.69725408,1.197809143,-1.375040588,1.670675812,2.473184391
13.70728608,0.973874817,-1.341809692,1.816472626,2.459361342
13.71731708,0.545765076,-1.282083893,2.757565613,3.089622426
13.72734808,0.216898956,-0.961899719,4.887187042,4.985668803
13.73737908,-0.011975098,-0.412542114,6.790628815,6.803159126
13.74741108,-0.247285767,-0.200433197,6.640940094,6.648564435
13.75744208,-0.350421295,-0.547261963,4.917124786,4.959879727
13.76747308,-0.150586853,-1.71184021,3.242557068,3.669775149
13.77750508,-0.167651367,-3.897744598,2.30745163,4.532643043
13.78753608,0.016316071,-6.353088684,0.764609985,6.39895542
13.79756708,0.806373138,-9.112450562,-1.397643585,9.254209878
13.80759808,2.557731171,-11.28727798,-3.933969269,12.22377795
13.81763008,3.318449249,-13.85967865,-1.907633057,14.37852084
13.82766108,0.531993713,-22.05753113,16.47384247,27.53552582
13.83769208,1.603914642,-28.07441895,20.82484451,34.99170888
13.84772308,0.558787994,-30.33546707,-1.491049347,30.37722888
13.85775508,-2.029329987,-30.09386948,-11.31407227,32.21439727
13.86778608,-1.026265869,-28.88977341,-8.854686584,30.23371799
13.87781708,-1.235381012,-28.79112854,5.613626404,29.3592924
13.88784908,-1.03554657,-25.80379074,9.364825745,27.47012804
13.89788008,0.429157562,-24.41497879,-2.343975677,24.53099239
13.90791108,2.964734802,-22.7917543,3.570075989,23.25938863
13.91794208,5.215903473,-21.64453995,7.4265065,23.47008218
13.92797408,3.384162598,-21.40743301,0.196840668,21.67416644
13.93800508,1.441203003,-20.70928482,0.135468292,20.75981444
13.94803608,-0.246237946,-19.77417938,2.93809021,19.99277813
13.95806708,-1.57727005,-18.25977859,3.35467392,18.63226052
13.96809908,-1.782792664,-15.64501602,2.22781723,15.9030829
13.97813008,-1.408570862,-13.09821213,1.461111603,13.25451168
13.98816108,-1.305135956,-10.74944641,1.363065491,10.91384101
13.99819308,-1.813778229,-8.690627747,1.385069733,8.985277973
14.00822408,-2.382745056,-7.218738556,1.54808075,7.757848564
14.01825508,-3.43535614,-5.59072403,0.583486633,6.587740404
14.02828608,-3.530258789,-3.202739868,-0.086969147,4.767371751
14.03831808,-3.148552551,-0.654289398,-0.032482452,3.21598086
14.04834908,-2.673739929,1.280886383,0.421822815,2.994576702
14.05838008,-2.042502594,2.547851715,1.705403595,3.683987871
14.06841108,-1.762584686,2.968177643,2.818488922,4.456530388
14.07844308,-1.429078217,2.206860809,2.731669464,3.791374057
14.08847408,-0.442928925,0.821641388,1.877096558,2.096371172
14.09850508,0.368982697,-0.264499969,2.098486176,2.147033463
14.10853708,0.361348572,-1.640139313,1.890718231,2.528921744
14.11856808,0.745150452,-1.748364258,0.914448395,2.109085736
14.12859908,0.875828705,-1.252146149,0.475561066,1.600345033
14.13863008,0.70084259,-0.821641388,1.011596375,1.479730425
14.14866208,0.345780945,-0.691262512,1.326242065,1.535033009
14.15869308,0.351319427,-0.602197723,1.204395447,1.391630637
14.16872408,0.710123291,-0.303269348,1.248403931,1.467909997
14.17875508,0.649050293,-0.064665527,1.500180359,1.635845048
14.18878708,0.004790039,-0.130977631,1.635049896,1.640294561
14.19881808,-0.510438538,-0.435893555,1.16427887,1.343910703
14.20884908,-0.564476166,-0.466579742,0.248483276,0.773352401
14.21888108,-0.375119934,-0.344882813,-0.185464325,0.54226943
14.22891208,-0.092208252,-0.351169739,0.220641174,0.424858888
14.23894308,-0.152832184,-1.475631409,1.448687439,2.073533464
14.24897408,0.028740234,-3.589984589,1.926344147,4.07426277
14.25900608,-0.140258331,-5.862259369,1.406774597,6.030321059
14.26903708,-0.625249786,-8.174800415,1.969753876,8.431976604
14.27906808,-0.397423553,-10.54482193,1.413211212,10.64651966
14.28909908,0.277822266,-13.78213989,4.525539093,14.50879283
14.29913108,-0.938548279,-19.32196976,14.08900177,23.93155572
14.30916208,-0.977467346,-23.82490585,7.640261993,25.03907316
14.31919308,-0.757724304,-25.96440674,-7.88290741,27.14525359
14.32922508,-0.968036957,-29.56471985,-5.222340088,30.0380191
14.33925608,-1.00156723,-32.23845978,10.97936829,34.07151235
14.34928708,-0.333356781,-31.83175552,7.916886749,32.80318403
14.35931808,0.0690065,-30.65924377,-2.904709625,30.79661229
14.36935008,1.378483429,-28.75670013,3.403173065,28.99016395
14.37938108,3.027753754,-27.57026733,8.522976379,29.01599662
14.38941208,3.30782135,-26.86478439,4.633015594,27.46130288
14.39944308,1.612895966,-25.57416824,5.250032501,26.15726201
14.40947508,0.054187317,-23.47807709,5.331163788,24.07580419
14.41950608,0.024399261,-20.66677322,3.998485107,21.05003549
14.42953808,0.444276123,-18.0446759,4.780758362,18.67252956
14.43957008,0.731678467,-15.62645462,3.350332947,15.99831767
14.44960108,1.515448608,-12.62010635,1.607357483,12.81199699
14.45963208,1.698517914,-9.397906952,1.217418365,9.627446476
14.46966308,1.276096344,-6.915918274,1.886676636,7.2813389
14.47969508,-0.213306427,-4.944368134,2.117346954,5.382883428
14.48972608,-2.149380341,-3.117417297,1.761536865,4.176258922
14.49975708,-3.467239838,-1.301693115,1.234782257,3.903952392
14.50978808,-3.472628632,1.029409332,1.056353302,3.772892191
14.51982008,-3.233126678,2.441722412,0.419876862,4.073255827
14.52985108,-2.530787201,2.841990051,0.27033783,3.815085038
14.53988208,-1.773511963,2.604883118,0.312849426,3.166802094
14.54991408,-1.089135132,2.05118454,0.433498535,2.362518642
14.55994508,-0.284857635,1.731449432,0.996777191,2.01807477
14.56997608,0.449066162,1.1771521,2.364932098,2.679599096
14.58000708,-0.328566742,-1.56679184,3.593726807,3.934166384
14.59003908,-1.511257324,-3.827690277,3.836372223,5.626087752
14.60007008,-2.221230927,-4.177063751,2.352957001,5.28376145
14.61010108,-2.185904388,-2.658321991,0.238603821,3.44989646
14.62013308,-1.74926239,-0.59201889,-1.51993927,2.391781901
14.63016408,-1.233435059,0.675545197,-2.288291473,2.68588928
14.64019508,-0.608334961,0.932111664,-1.564097443,1.919714663
14.65022608,-0.318986664,0.81550415,-0.026345215,0.87606711
14.66025808,-0.236208801,0.848884735,0.581840057,1.055906124
14.67028908,-0.12753479,0.836161194,0.411643982,0.940681366
14.68032008,-0.073946228,0.580043793,0.553249512,0.804986875
14.69035108,-0.170196075,0.157771912,0.955463104,0.983243827
14.70038308,-0.266445923,-0.532143402,1.570084991,1.679088119
14.71041408,-0.209564209,-1.62756546,2.579735413,3.057437045
14.72044508,-0.388142853,-3.356470184,4.823269958,5.889013505
14.73047708,-0.552351379,-5.585484924,5.775290222,8.053366441
14.74050808,0.681981812,-7.287146301,2.602937164,7.768068118
14.75053908,2.593207397,-8.536747742,-2.704875183,9.322936038
14.76057008,3.50436264,-11.11917755,-3.382366333,12.139072
14.77060208,0.953068085,-18.57502304,10.99179245,21.60461342
14.78063308,1.281036072,-24.47739899,18.37878113,30.63598718
14.79066408,1.808838501,-24.79204468,1.891616364,24.92981325
14.80069608,0.818946991,-25.25143936,-12.83026932,28.33587258
14.81072708,-1.70016449,-26.76164886,-4.207300873,27.14365101
14.82075808,-4.414470062,-29.72204269,9.102571106,31.39656301
14.83078908,-3.922892303,-29.64465363,6.347250824,30.56930103
14.84082108,-1.378782806,-28.35149277,-0.26794281,28.38626389
14.85085208,0.458795929,-28.54728561,4.741689606,28.94203915
14.86088308,3.163222046,-26.40628784,5.100643158,27.07978161
14.87091408,3.590134277,-24.30555634,3.378923492,24.80052937
14.88094608,1.773511963,-23.34814728,3.521277466,23.67869762
14.89097708,0.424068146,-22.32622238,4.689897308,22.81743142
14.90100808,0.138013,-20.8475972,3.97947464,21.224457
14.91104008,0.314346313,-18.86317383,3.317551117,19.15526784
14.92107108,0.426612854,-15.89260117,2.361938324,16.07281939
14.93110208,0.456400909,-13.07426193,2.283800812,13.28007428
14.94113308,0.220790863,-10.6142775,2.701881409,10.95498966
14.95116508,-0.288450165,-8.244555359,2.555186462,8.636253494
14.96119608,-1.521885223,-6.464008026,2.010020142,6.938278992
14.97122708,-2.69469635,-4.851411438,1.28358078,5.696065395
14.98125808,-3.337908783,-3.162922668,-0.315693512,4.609270793
14.99129008,-3.227588196,-1.127156067,-0.85187851,3.523280198
15.00132108,-2.384840698,0.793948975,-0.677341461,2.603192576
15.01135208,-1.363664246,2.127525787,0.402063904,2.558828156
15.02138408,-0.57450531,2.660118256,1.280437317,3.007624512
15.03141508,0.129630432,2.410587158,1.679657135,2.940915264
15.04144608,0.444276123,1.305285645,2.142794037,2.548081273
15.05147708,1.30348938,0.346828766,2.68885849,3.008211219
15.06150908,2.356100464,-1.141526184,2.463427277,3.594824804
15.07154008,2.222727814,-2.577340393,0.630488892,3.461317477
15.08157108,1.271306305,-3.130739594,-1.53520752,3.711416475
15.09160208,0.233514404,-1.87559967,-1.497635651,2.411496557
15.10163408,-0.508342896,-0.034877472,-0.777932281,0.929950306
15.11166508,-0.947828979,0.398022308,-0.294138336,1.06926091
15.12169608,-0.777932281,0.276924133,0.027393036,0.826205779
15.13172808,-0.440833282,0.182769928,-0.048948212,0.479723626
15.14175908,-0.289198608,0.064216461,0.058378601,0.301939812
15.15179008,-0.379610596,-0.124391327,0.83900528,0.929250916
15.16182108,-0.577798462,-0.522713013,2.07573349,2.217148953
15.17185308,-0.805624695,-0.896635437,2.752625885,3.004985111
15.18188408,-0.651595001,-0.895886993,2.540067902,2.771125132
15.19191508,-0.205672302,-0.902922363,2.525398407,2.68983401
15.20194708,0.405057678,-1.424437866,3.304079132,3.620778075
15.21197808,0.013621674,-2.858306122,3.628304901,4.618949652
15.22200908,-0.577349396,-4.332440643,1.756896515,4.710632613
15.23204008,-1.158740387,-5.990392914,-0.767304382,6.149491244
15.24207208,-0.300874329,-7.447462921,-3.405717773,8.194763137
15.25210308,0.536634064,-10.39468414,-3.009042664,10.83474837
15.26213408,-0.508642273,-16.36007904,8.25967392,18.33393347
15.27216608,-0.901724854,-22.86510178,22.13971024,31.84011238
15.28219708,1.465901642,-23.78419052,5.630391541,24.48546294
15.29222808,-0.921932831,-27.51907379,-14.14483566,30.95522183
15.30225908,-5.282365265,-32.02156082,2.788551178,32.57391223
15.31229108,-4.443060608,-32.24399826,12.51562363,34.87200949
15.32232208,-2.053130493,-28.49414612,3.789968719,28.81832005
15.33235308,0.236657867,-25.80858078,3.194956055,26.0066644
15.34238408,2.637066193,-25.47642151,5.147795105,26.12473857
15.35241608,5.423671417,-25.49603073,2.366878052,26.1737637
15.36244708,5.066364441,-26.50388489,4.684358826,27.38735439
15.37247808,1.656455383,-26.23788803,5.07235199,26.77497652
15.38251008,-1.860780487,-24.8740741,2.180515594,25.03870433
15.39254108,-2.882106628,-21.95529373,2.511177979,22.28558898
15.40257208,-1.947599945,-17.94902481,3.457959137,18.3825493
15.41260308,-0.28545639,-14.92531265,3.323239288,15.29347451
15.42263508,1.131946106,-12.40560242,2.545905762,12.71463367
15.43266546,1.989961853,-9.477541351,2.292033691,9.95174139
15.44269646,2.275567932,-7.10826828,2.661764832,7.924057002
15.45272846,1.749412079,-5.50644928,2.079176331,6.140390908
15.46275946,0.472267914,-3.805386658,1.067879333,3.980498822
15.47279046,-0.741408234,-2.018702087,0.510588226,2.210326814
15.48282146,-1.76453064,-0.174836426,-0.188757477,1.783189709
15.49285346,-1.74806488,1.614093475,-0.225580902,2.389961363
15.50288446,-1.019529877,2.65847168,0.480500793,2.887523827
15.51291546,-0.495918732,2.999462585,1.110091553,3.236512698
15.52294646,-0.646206207,2.190844116,0.959055634,2.477330844
15.53297846,-0.720601501,0.822689209,0.801583099,1.355957051
15.54300946,-0.28081604,-0.739761658,0.710871735,1.063693368
15.55304046,-0.223934326,-1.956880646,1.216969299,2.315284587
15.56307246,-1.27894043,-2.78480896,1.821562042,3.564959725
15.57310346,-1.710493011,-2.910248108,1.860181732,3.854297143
15.58313446,-1.967059479,-2.220482483,0.553848267,3.017716579
15.59316546,-1.785187683,-1.062939606,-1.06713089,2.335702037
15.60319746,-1.401685181,-0.450862427,-1.949096832,2.442739596
15.61322846,-1.154100037,-0.524958344,-1.941313019,2.318668668
15.62325946,-0.906963959,-0.534089355,-1.042132874,1.481173855
15.63329146,-0.835113373,-0.319735107,0.569565582,1.060212166
15.64332246,-1.114432526,-0.080532532,2.886447601,3.095161563
15.65335346,-1.260828094,0.085023193,4.954247589,5.112874495
15.66338446,-0.763562164,-0.047002258,5.076543274,5.133860926
15.67341646,-0.091759186,-0.35805542,3.878434753,3.896008158
15.68344746,0.68796936,-0.930315399,1.961221619,2.277098773
15.69347846,0.54531601,-2.466271362,0.615669708,2.599790986
15.70351046,-0.285306702,-4.219874725,0.239501953,4.236284197
15.71354146,-0.089813232,-5.96749054,-1.769470367,6.224952621
15.72357246,0.393232269,-8.756041718,-2.311942291,9.064655279
15.73360346,0.001945953,-13.32379303,2.171833649,13.49964169
15.74363546,-0.131426697,-18.30243988,9.097631378,20.43926308
15.75366646,0.205073547,-21.70396637,11.23503662,24.44034082
15.76369746,-0.207468567,-24.79294281,1.011596375,24.81443901
15.77372846,-1.99505127,-28.38547211,-6.112688599,29.10464255
15.78376046,-4.387226715,-30.68873245,5.358706512,31.46047986
15.79379146,-4.952900391,-32.66492294,10.30666718,34.60860878
15.80382246,-1.667532349,-31.04424316,5.766009521,31.61918031
15.81385446,1.602417755,-27.81381088,4.371359711,28.20079084
15.82388546,3.896696777,-24.46198105,-0.531095581,24.77609382
15.83391646,5.142855377,-22.87438248,-0.398770752,23.44878149
15.84394746,5.381010132,-22.34822662,1.110989685,23.01375244
15.85397946,3.156635742,-22.58458511,0.895587616,22.82169825
15.86401046,0.46104126,-21.99331467,1.402583313,22.04281491
15.87404146,-1.479822693,-20.01263351,1.276695099,20.10784239
15.88407346,-2.510279846,-17.35071899,0.780926056,17.54875494
15.89410446,-2.779420166,-14.29781754,1.657652893,14.65948757
15.90413546,-1.719773712,-11.84861069,3.327580261,12.42658389
15.91416646,-0.351469116,-10.09979736,4.086352386,10.9008125
15.92419846,0.370479584,-8.368048553,3.566184082,9.103799241
15.93422946,0.416733398,-6.521787872,3.691922607,7.505842812
15.94426046,-0.444276123,-4.62538147,3.887266388,6.058248508
15.95429246,-1.429527283,-2.961741028,3.853436737,5.066007585
15.96432346,-2.459685059,-1.216520233,2.714155884,3.859613222
15.97435446,-2.571203156,0.482596436,1.599873047,3.066525518
15.98438546,-1.350641327,1.844464417,2.30745163,3.24817087
15.99441746,-0.508791962,2.119891663,3.511248322,4.13299827
16.00444846,0.109123077,1.522783356,4.527934113,4.778385117
16.01447946,0.096549225,0.853824463,3.400029602,3.506927325
16.02451046,-0.757125549,0.126187592,0.348774719,0.843093239
16.03454246,-1.584604797,-0.404009857,-2.177372131,2.723076519
16.04457346,-1.78668457,-0.421074371,-3.03868103,3.550088419
16.05460446,-2.243684235,-0.320034485,-3.168910217,3.895963678
16.06463646,-2.345173187,-0.406105499,-2.53797226,3.479376689
16.07466746,-1.82066391,-0.347277832,-1.248403931,2.234710572
16.08469846,-1.383423157,-0.047601013,-0.083376617,1.386750571
16.09472946,-0.883313141,0.429906006,0.618214417,1.160711137
16.10476146,-0.855770416,0.734073486,0.668958893,1.310996907
16.11479246,-0.803079987,0.657283173,0.637823639,1.218104112
16.12482346,-0.50310379,0.520767059,0.00703537,0.724127924
16.13485546,-0.354163513,0.039667511,-1.155596924,1.209301268
16.14488646,-0.210312653,-0.566721497,-1.307081909,1.440092977
16.15491746,-0.005239105,-1.380579071,-0.751736755,1.57198415
16.16494846,0.230969696,-2.870879974,0.929417267,3.026403027
16.17498046,0.113314362,-4.580624542,2.456092529,5.19878369
16.18501146,0.327219543,-6.279441833,2.54964798,6.785216812
16.19504246,1.444945221,-8.178243256,3.008892975,8.833174196
16.20507446,2.297572174,-10.80198715,5.11097168,12.16896856
16.21510546,2.531535645,-14.51890778,6.851552124,16.25272661
16.22513646,2.752326508,-18.04287964,3.420686646,18.56938082
16.23516746,1.752555542,-21.03036713,-0.735570374,21.11608051
16.24519946,-0.83196991,-22.98709808,0.724194031,23.01354621
16.25523046,-0.635129242,-23.17959778,-1.312021637,23.22538575
16.26526146,-1.685644684,-24.08222076,-1.036145325,24.16336798
16.27529346,-3.960314484,-25.69870926,4.977149963,26.47413398
16.28532446,-5.378465424,-29.44362167,3.58399704,30.14464766
16.29535546,-4.057462463,-34.22931976,3.644022217,34.66104775
16.30538646,1.170865173,-33.65511383,4.155658264,33.9309167
16.31541846,6.016289063,-31.16953262,6.366111603,32.37688798
16.32544946,8.103548584,-27.73043427,8.94644577,30.24373284
16.33548046,8.383466492,-23.81981644,7.155869293,26.2463832
16.34551146,7.807015228,-21.50503006,4.646337891,23.34532631
16.35554346,6.711742859,-20.1826799,5.156327362,21.88551512
16.36557446,4.636608124,-19.39052719,5.323529663,20.63566446
16.37560546,2.087858276,-18.8648204,5.341342621,19.71726508
16.38563746,0.385149078,-16.62637527,4.851860504,17.32412321
16.39566846,-0.221688995,-12.77114227,3.240461426,13.17770129
16.40569946,-0.63423111,-8.911867676,1.084494781,8.999986861
16.41573046,-1.638492737,-6.009403381,-1.450184326,6.395359414
16.42576246,-2.752176819,-3.559148712,-2.680775299,5.237229516
16.43579321,-3.723656616,-1.520538025,-2.651585999,4.817526626
16.44582421,-3.931723938,0.111069031,-1.348994751,4.158193874
16.45585621,-3.513194275,1.262774048,-0.191152496,3.738137449
16.46588721,-2.737058258,2.991080017,0.663719788,4.108353871
16.47591821,-1.906285858,3.600762177,0.637973328,4.123884575
16.48594921,-0.096998291,3.560046844,1.270258484,3.781124015
16.49598121,0.973874817,1.894610138,2.027533722,2.940896586
16.50601221,0.339194641,-0.466579742,0.616867218,0.844555993
16.51604321,-0.320034485,-1.92245224,-1.558259583,2.495279065
16.52607521,-0.161663818,-2.566413116,-2.9368927,3.903581715
16.53610621,0.113763428,-1.855242004,-3.124302979,3.635400131
16.54613721,0.16615448,-0.936901703,-2.405946808,2.587271179
16.55616821,0.350720673,-0.401165771,-1.584455109,1.67165695
16.56620021,0.915496216,-0.052241364,-0.470172272,1.030497184
16.57623121,1.61708725,0.2468367,0.792901154,1.817853616
16.58626221,2.221679993,0.4352948,1.864373016,2.932785416
16.59629421,1.765728149,0.178129578,2.899320831,3.399351016
16.60632521,-0.191751251,-0.644859009,3.669618988,3.730779436
16.61635621,-1.679956512,-1.248254242,3.021766205,3.675794272
16.62638721,-2.316582642,-1.397344208,1.789528656,3.243692153
16.63641921,-2.051034851,-1.01803299,0.775537262,2.417559342
16.64645021,-1.68489624,-0.562081146,-0.01407074,1.776234371
16.65648121,-1.318607941,-0.1685495,-0.328716431,1.36937589
16.66651321,-0.751587067,-0.798439636,0.537831573,1.221331967
16.67654421,-1.34794693,-3.398981781,3.169508972,4.838990101
16.68657521,-2.841690674,-6.465055847,8.381221161,10.95979111
16.69660621,-2.860102386,-9.709558868,9.832602997,14.11154849
16.70663821,1.215472412,-9.851463776,-4.814138947,11.03198285
16.71666921,2.824326782,-10.06506958,-11.23084534,15.34321786
16.72670021,-0.173788605,-16.1057579,4.864134979,16.82514336
16.73673121,-0.635428619,-23.39155701,12.04425385,26.31791708
16.74676321,3.678151245,-22.89593765,-3.957171021,23.52470956
16.75679421,3.076851654,-27.3159462,7.975864105,28.62240977
16.76682521,2.472558289,-30.34759186,5.729635162,30.98255308
16.77685721,0.800834656,-29.84254211,0.300125885,29.85479411
16.78688821,-0.203426971,-28.8195694,5.447621613,29.33062468
16.79691921,1.403481445,-26.10481476,2.912044373,26.30420339
16.80695021,2.913391571,-24.93844025,2.372266846,25.21985929
16.81698221,2.730322266,-25.80558701,4.726870422,26.37662382
16.82701321,1.783690796,-25.04681488,4.152963867,25.45135748
16.83704421,0.788260803,-23.62357452,2.4126828,23.75953844
16.84707621,-0.743354187,-22.80567535,-0.337398376,22.82028136
16.85710721,-1.605561218,-21.03246277,1.0577005,21.12015737
16.86713821,-1.523232422,-18.5901416,2.900368652,18.87659239
16.87716921,-1.614093475,-16.12656464,2.624941406,16.41833433
16.88720121,-1.773362274,-13.86312149,3.57696167,14.42655905
16.89723221,-1.362317047,-11.02307739,2.838846588,11.4639955
16.90726321,-1.362915802,-8.702902222,0.776285706,8.843114048
16.91729521,-1.047371979,-6.641538849,1.045725403,6.804452069
16.92732621,-0.963695984,-4.120930481,2.004631348,4.6828757
16.93735721,-1.335971832,-2.409389648,2.725831604,3.875582169
16.94738821,-1.650318146,-0.731079712,2.748135223,3.287898224
16.95742021,-1.427581329,0.454155579,2.44666214,2.868867611
16.96745121,-0.956361237,1.053658905,2.31209198,2.714883649
16.97748221,-0.723445587,1.560055847,3.322191467,3.740869406
16.98751421,-0.210162964,0.699345703,4.040697327,4.106152429
16.99754521,0.540675659,-0.012274475,4.226610718,4.26107017
17.00757621,0.849782867,-0.175285492,2.807861023,2.938867035
17.01760721,0.095202026,-0.613274689,-0.126786346,0.633438274
17.02763921,-0.220341797,-0.91504715,-2.918331299,3.066352779
17.03767021,-0.598754883,-1.034947815,-4.179907837,4.347557235
17.04770121,-0.227526855,-1.029559021,-3.595822449,3.747225551
17.05773321,0.230071564,-0.975222015,-2.445015564,2.642364852
17.06776421,0.406704254,-0.913101196,-1.400787048,1.720862139
17.07779521,0.249381409,-0.786913605,-0.74305481,1.110655013
17.08782621,0.00239502,-0.694256287,-0.20237915,0.723156171
17.09785821,-0.25042923,-0.518821106,0.006735992,0.576138449
17.10788921,-0.508791962,-0.23171814,-0.061671753,0.562464187
17.11792021,-0.777483215,0.141006775,-0.40715332,0.888896443
17.12795221,-0.936901703,0.549058228,-0.74530014,1.31708847
17.13798321,-0.713117065,0.752784576,-0.737666016,1.27254537
17.14801421,-0.11705658,0.712069244,-0.352067871,0.802930033
17.15804521,0.728535004,0.515378265,0.064066772,0.894696909
17.16807721,1.185085602,-0.971629486,2.834206238,3.221989562
17.17810821,0.294288025,-4.312681732,9.824669495,10.73359026
17.18813921,1.244811401,-6.370901642,3.858077087,7.55133776
17.19817121,4.172423401,-8.484955444,-5.148842926,10.76634429
17.20820221,3.718118134,-16.06159973,3.362757111,16.82579935
17.21823321,2.456092529,-25.52626785,13.87973694,29.1593868
17.22826421,1.908830566,-30.59981735,7.564669189,31.57873772
17.23829621,2.718496857,-33.45048935,-0.138761444,33.56105954
17.24832721,3.876189423,-34.90276932,3.928131409,35.33636041
17.25835821,2.079625397,-34.14564377,5.559888153,34.65778681
17.26839021,-2.854114838,-31.28778671,1.967059479,31.47921365
17.27842121,-4.765340424,-27.92937057,2.70292923,28.46162393
17.28845221,-2.625240784,-26.67647598,2.214944,26.89669565
17.29848321,0.95366684,-27.78057999,5.202880554,28.27967593
17.30851521,3.983516235,-27.02330475,5.688620453,27.9013943
17.31854621,5.597010956,-23.69886795,3.857029266,24.65440221
17.32857721,5.675747223,-19.65637436,3.044818268,20.68473055
17.33860921,4.931794281,-16.32565063,2.782563629,17.2798184
17.34864021,3.182531891,-14.42370575,2.812351685,15.03599411
17.35867121,0.599802704,-13.01408707,2.856659546,13.33741839
17.36870221,-1.388213196,-10.58703415,2.621797943,10.99482844
17.37873421,-2.974763947,-7.66286499,1.585353241,8.371503168
17.38876521,-4.991370392,-6.342760162,-0.148341522,8.072570227
17.39879621,-6.439908142,-5.186863861,-1.267713776,8.365588551
17.40882821,-6.099515991,-2.863844604,-0.905018005,6.798879234
17.41885921,-5.252128143,-0.225131836,0.536634064,5.284270101
17.42889083,-4.145778809,1.404229889,0.658929749,4.426458169
17.43892183,-2.813848572,2.198777618,0.681832123,3.635555232
17.44895383,-1.65211441,2.173779602,1.547931061,3.138612807
17.45898483,-0.965192871,1.073118439,3.588936768,3.868287423
17.46901583,0.148341522,-0.08771759,6.029311981,6.031774411
17.47904783,1.5527211,-0.121547241,6.201304321,6.393894887
17.48907883,2.469414825,-0.498912506,4.840783539,5.457115405
17.49910983,1.899250488,-1.157093811,2.34831665,3.234286567
17.50914183,0.998573456,-1.804497528,-0.022004242,2.062485021
17.51917283,0.637224884,-1.874851227,-1.686991882,2.601358162
17.52920383,0.103285217,-1.629661102,-2.291135559,2.813496987
17.53923483,-0.7418573,-1.728156281,-2.624342651,3.228629854
17.54926683,-1.398691406,-1.84985321,-2.851719818,3.675676873
17.55929783,-1.62053009,-1.641336823,-2.899769897,3.705235458
17.56932883,-1.631457367,-0.929117889,-2.755919037,3.334666839
17.57935983,-1.519190826,-0.307011566,-2.171234894,2.667668989
17.58939183,-1.396296387,0.101488953,-1.510957947,2.059839199
17.59942283,-1.244362335,0.327967987,-0.782273254,1.505972133
17.60945383,-1.105301514,0.506097565,-0.589025116,1.350842984
17.61948583,-1.04722229,0.650247803,-1.095871124,1.649372684
17.62951683,-0.787063293,0.534089355,-1.350042572,1.651464506
17.63954783,-0.367336121,-0.069156189,-0.293090515,0.474995215
17.64957983,-0.023650818,-2.462229767,4.820276184,5.412780919
17.65961083,1.097218323,-5.379662933,5.275329895,7.614050619
17.66964183,2.403551788,-9.65088089,5.416186981,11.32482426
17.67967283,2.375410309,-18.29869766,10.78911392,21.3749828
17.68970483,2.049837341,-25.52477097,4.597988434,26.01648062
17.69973583,1.005010071,-28.94485886,-3.925287323,29.22708983
17.70976683,-0.298628998,-31.63805832,-1.719773712,31.68617262
17.71979883,-2.669997711,-36.38019699,8.352929993,37.42217338
17.72982983,-5.687722321,-40.26776276,13.19895264,42.75576281
17.73986083,-7.888894958,-43.05391891,12.77817764,45.59776772
17.74989183,-7.953710175,-38.3560881,8.574020233,40.09943669
17.75992383,-4.152514801,-28.27619934,-0.572559357,28.58521738
17.76995483,0.61432251,-22.04316101,-4.008813629,22.41314182
17.77998583,4.528383179,-17.01736221,-0.15567627,17.61025571
17.79001783,7.887996826,-13.65879639,3.830085297,16.23122811
17.80004883,8.250991974,-12.66650986,4.072281647,15.65575991
17.81007983,5.793252869,-12.99163376,1.645079041,14.31958839
17.82011083,2.575544128,-12.93026138,-0.65174469,13.20037341
17.83014283,-0.76640625,-10.59257263,-1.9282901,10.79389995
17.84017383,-2.994373169,-7.895331573,-0.130977631,8.445098369
17.85020483,-4.843328247,-5.301974487,2.175875244,7.503545499
17.86023683,-5.328020325,-2.814896393,2.560275879,6.547247884
17.87026783,-4.566404114,-0.666713562,3.697760468,5.913542591
17.88029883,-3.087329865,-0.067210236,4.471651154,5.434315683
17.89032983,-1.427132263,0.027093658,4.486919403,4.708490872
17.90036183,0.387843475,-0.024698639,6.202950897,6.215113226
17.91039283,1.237326965,0.067659302,7.77408371,7.872225437
17.92042383,0.734372864,-1.162033539,9.231303406,9.333091022
17.93045583,-1.344953156,-2.453248444,7.618257751,8.115736447
17.94048683,-2.552791443,-2.255060577,1.206042023,3.613388952
17.95051783,-2.290536804,-2.301015015,-5.378315735,6.282317175
17.96054883,-2.399360504,-3.490291901,-8.049810333,9.096071393
17.97058083,-2.263592834,-3.774999847,-7.835755463,8.987410085
17.98061183,-1.57023468,-2.038760376,-5.655838623,6.213750184
17.99064283,-1.345701599,-0.736318817,-3.273991699,3.6155359
18.00067483,-1.028960266,-0.166453857,-2.15881073,2.397275513
18.01070583,-0.879421234,0.285606079,-1.925296326,2.135817989
18.02073683,-0.542471924,0.607137451,-1.077908478,1.350843573
18.03076783,0.202229462,1.190773773,-0.522563324,1.316021034
18.04079983,0.675245819,1.47667923,0.006735992,1.623756089
18.05083083,1.023122406,1.665885773,0.603395233,2.045981592
18.06086183,2.289638672,1.792372742,3.193010101,4.318606118
18.07089383,5.284311218,1.479972382,8.803942108,10.37418237
18.08092483,6.387966156,-0.799637146,10.39887543,12.23037781
18.09095583,4.49081131,-4.493655396,9.77602066,11.65894099
18.10098683,2.867287445,-7.509434052,3.743864594,8.867325367
18.11101883,1.62636795,-9.560319214,-7.850724335,12.47712502
18.12104983,0.43993515,-10.77055252,-9.603130188,14.43670509
18.13108083,-1.318607941,-16.15201172,2.395618286,16.38185571
18.14111283,-3.739523621,-26.60731979,16.79687073,31.68703788
18.15114383,-2.769690399,-30.63679047,17.35685623,35.32059701
18.16117483,-0.672551422,-26.98124222,-0.919986877,27.00529824
18.17120683,-1.348994751,-26.11334702,-10.02001328,28.00227393
18.18123783,-2.115251312,-27.77683777,1.929038544,27.92397168
18.19126883,-1.610650635,-27.16955063,4.452940063,27.57911079
18.20129983,-0.394729156,-25.02570877,0.369581451,25.03155011
18.21133183,0.313897247,-24.77258514,3.467988281,25.01612378
18.22136283,0.903072052,-23.68389908,4.395609283,24.10526904
18.23139383,2.494412842,-20.32084259,5.826483765,21.28630198
18.24142583,4.12811554,-17.00433929,4.420756989,18.04804657
18.25145683,3.728446655,-15.93930405,-0.961600342,16.39778653
18.26148783,2.832110596,-15.70264618,-1.833686829,16.06101973
18.27151883,2.211201782,-15.67540283,3.659739532,16.24811868
18.28155083,0.567020874,-15.87463852,6.231990509,17.06350979
18.29158183,-0.879720612,-15.25567566,3.761976929,15.73728117
18.30161283,-2.070943451,-13.90458527,0.511186981,14.06725312
18.31164483,-2.15417038,-12.15173035,0.953068085,12.3779376
18.32167583,-2.302212524,-10.83551743,0.851279755,11.1100539
18.33170683,-3.483855286,-8.391549683,0.587827606,9.104992862
18.34173783,-3.562292175,-4.557871857,2.06286026,6.141621435
18.35176983,-2.969075775,-0.652044067,3.954626312,4.987949648
18.36180083,-2.973267059,1.491947479,2.912942505,4.421703102
18.37183183,-3.745810547,0.511636047,0.972677307,3.903712239
18.38186383,-3.663930817,-0.412093048,2.139500885,4.262824621
18.39189483,-2.308798828,-0.172591095,5.979615326,6.412186769
18.40192583,-0.274828491,-0.052091675,8.484506378,8.489116133
18.41195683,0.732127533,-0.491128693,7.699389038,7.749697393
18.42198883,-0.067509613,-1.534908142,4.683760071,4.929311205
18.43201983,-0.642314301,-1.431622925,1.442999268,2.13175016
18.44205083,-1.167422333,-1.226549377,-1.101858673,2.020245236
18.45208283,-1.775308228,-1.555565186,-2.370171204,3.345028234
18.46211383,-2.306104431,-1.994751892,-2.627186737,4.024830793
18.47214483,-2.260149994,-2.025138702,-3.364852753,4.531191764
18.48217683,-1.532213745,-1.578168182,-4.154610443,4.70096604
18.49220783,-1.25783432,-0.962049408,-4.149670715,4.441559781
18.50223883,-0.895587616,-0.318687286,-3.252286835,3.388363679
18.51226983,-0.466280365,0.230221252,-2.181862793,2.242976694
18.52230183,0.10298584,0.927770691,-1.41695343,1.696797443
18.53233283,0.719703369,1.309626617,-0.935404816,1.762973904
18.54236383,1.788480835,1.002615051,0.09131012,2.052373791
18.55239583,3.676804047,-1.118025055,4.228856049,5.714200863
18.56242683,5.319637756,-5.053341522,10.21056702,12.57340388
18.57245783,4.883594513,-11.04912323,11.29386429,16.53735136
18.58248883,3.773203583,-17.28485596,8.002508698,19.41760686
18.59252083,2.850222931,-23.8799913,7.997419281,25.34435776
18.60255183,3.282973022,-27.03348358,4.621639252,27.62148975
18.61258283,1.124012604,-25.48061279,-1.742676086,25.56485777
18.62261483,-1.562001801,-20.79550552,-8.673563232,22.58591594
18.63264583,-3.232527924,-18.32399506,-2.257455597,18.74337583
18.64267683,-2.61625946,-19.04115372,13.82195709,23.6739698
18.65270783,-0.708476715,-22.11800537,14.73909988,26.58851568
18.66273983,-0.448317719,-26.35704025,5.501210175,26.9287555
18.67277083,0.168399811,-29.42955093,-2.880909119,29.5707028
18.68280183,1.03315155,-27.19200394,-6.772965546,28.04185341
18.69283383,-0.972527618,-21.90350143,-4.91203537,22.46858421
18.70286483,-0.996627502,-18.81063309,0.989143066,18.86296868
18.71289583,1.9972966,-15.29549286,6.379134521,16.69235312
18.72292783,4.054319,-14.29976349,8.699010315,17.22189069
18.73295883,4.605921936,-15.17978348,8.207731934,17.86077285
18.74298983,3.379372559,-16.47084869,4.144581299,17.31723332
18.75302083,1.120569763,-16.09587845,0.663270721,16.14846456
18.76305283,-0.275127869,-14.07223663,0.741108856,14.09442377
18.77308383,-1.73758667,-12.03871536,3.549568634,12.67080552
18.78311483,-2.940036163,-9.467811584,3.494183807,10.51154552
18.79314683,-3.345842285,-5.545817413,3.550167389,7.386097743
18.80317783,-2.678679657,-1.693428497,4.739444275,5.70134693
18.81320883,-2.334245911,-0.745000763,4.403692474,5.03946798
18.82323983,-2.354753265,-1.799707489,3.921844482,4.915757737
18.83327183,-0.974922638,-1.604363708,6.629863129,6.890540049
18.84330283,1.528022461,-0.082927551,10.4470752,10.55855623
18.85333383,1.09167984,-0.600551147,10.69076843,10.76312948
18.86336583,-1.326691132,-1.162033539,7.843688965,8.039520376
18.87339683,-2.915936279,-1.180145874,4.57972641,5.556016798
18.88342783,-5.045258331,-2.217189331,0.058378601,5.511258316
18.89345883,-6.102060699,-2.75666748,-4.96233078,8.334211849
18.90349083,-5.917494507,-2.386487274,-8.290210419,10.46134081
18.91352183,-4.7072612,-2.239193573,-8.583600311,10.04243447
18.92355283,-3.001109161,-1.925296326,-7.2486763,8.078163792
18.93358483,-1.945953369,-1.304088135,-3.866908722,4.521102016
18.94361583,-1.498683472,-0.515378265,-0.809516602,1.779602212
18.95364683,-0.60728714,0.336350555,0.235310669,0.733007829
18.96367883,-0.009131012,0.884510651,0.126187592,0.893513164
18.97370983,0.371078339,1.282083893,-0.150137787,1.343123076
18.98374083,1.249002686,1.616338806,0.303269348,2.065074125
18.99377183,2.558479614,1.677262115,1.307231598,3.326842436
19.00380383,4.132157135,1.303639069,2.428400116,4.96702371
19.01383483,5.636828156,0.617915039,3.979324951,6.92753042
19.02386583,6.592590637,-0.664168854,3.539090424,7.511892744
19.03389783,6.977889404,-2.959645386,0.790057068,7.62067133
19.04392883,6.235732727,-6.992109833,-1.157692566,9.440032555
19.05395983,4.613855438,-11.91761719,0.233364716,12.78169474
19.06399083,3.68458786,-16.60332321,4.005819855,17.47263924
19.07402283,3.16980835,-20.44987427,10.02659958,22.99516779
19.08405383,2.885250092,-22.17593491,7.885901184,23.71253244
19.09408483,1.067579956,-21.50682632,-0.420924683,21.53742053
19.10411683,-0.944386139,-21.11733627,1.647324371,21.20253367
19.11414783,-4.417763214,-28.75340698,27.04890152,39.72301749
19.12417883,-5.92183548,-34.40221024,36.08501083,50.20665505
19.13421083,-2.411784668,-29.56172607,-4.296814728,29.96956741
19.14424183,-3.909120941,-26.33563477,-17.15058517,31.67000879
19.15427283,-7.883506165,-20.53654404,-11.81897232,24.97173236
19.16430383,-6.485862579,-17.04984467,-3.159629517,18.51342419
19.17433583,-1.915566559,-16.8184259,6.643634491,18.18424385
19.18436683,3.13822403,-17.66955597,4.731660461,18.55937146
19.19439783,6.058052216,-18.68564301,0.094603271,19.6433755
19.20442983,8.186775513,-18.50362152,3.145858154,20.47690714
19.21446083,8.177195435,-18.04347839,5.620212708,20.59175633
19.22449183,5.325475616,-17.37706421,5.568121033,19.00860392
19.23452283,2.061063995,-17.24114685,5.300178223,18.15480704
19.24455483,0.182470551,-16.57009232,4.344715118,17.1311939
19.25458583,0.439486084,-15.3944371,4.314477997,15.9936413
19.26461683,1.107995911,-13.46105759,4.620890808,14.27516578
19.27464883,0.683029633,-11.18414246,5.439538422,12.45552689
19.28467983,-0.07723938,-7.85012558,6.310128021,10.0721474
19.29471083,-0.718954926,-3.515439606,5.655090179,6.697406718
19.30474283,-1.869911499,-0.552800446,3.471281433,3.981451009
19.31477383,-2.995720367,0.347427521,1.223705292,3.254612272
19.32480483,-3.179388428,1.056502991,1.219963074,3.565532112
19.33483583,-2.571203156,1.675465851,2.431543579,3.915440673
19.34486783,-1.701062622,2.778522034,5.100044403,6.05179739
19.35489883,-1.080153809,2.471360779,6.965315552,7.469268845
19.36492983,-1.803599396,-1.028810577,4.845124512,5.271304726
19.37496183,-1.2063414,-2.56955658,1.420695648,3.174312006
19.38499283,-0.597108307,-2.998414764,-1.162183228,3.270733753
19.39502383,-0.486937408,-2.822979584,-3.084934845,4.20988655
19.40505583,-0.37437149,-2.883453827,-4.049229584,4.985049669
19.41508683,-0.116906891,-2.238145752,-3.940705261,4.533444781
19.42511783,0.092507629,-1.305135956,-4.06719223,4.27246886
19.43514883,0.003742218,-0.65174469,-3.508553925,3.568576157
19.44518083,-0.241747284,-0.135617981,-2.425106964,2.44089692
19.45521183,-0.403560791,0.254919891,-1.697619781,1.763450704
19.46524283,-0.192948761,0.549207916,-1.294508057,1.419369462
19.47527483,0.504900055,0.891246643,-1.406325531,1.739826469
19.48530583,1.49658783,0.258961487,-1.634151764,2.230983678
19.49533683,2.261497192,-1.617985382,-0.095052338,2.782315797
19.50536783,2.801424408,-4.005670166,9.289981384,10.4974819
19.51539983,2.464774475,-6.346203003,10.20053787,12.26378321
19.52543083,3.99579071,-7.181016998,0.784069519,8.255187069
19.53546183,3.306773529,-10.49931656,0.543070679,11.02113085
19.54549383,2.217488708,-15.17184998,9.38757843,17.97856826
19.55552483,1.949096832,-18.49643646,9.354048157,20.81863005
19.56555583,2.696193237,-19.5244986,3.496279449,20.0174792
19.57558683,2.904709625,-18.94250885,-1.770518188,19.24553751
19.58561883,1.266815643,-18.68354736,-4.912334747,19.3600309
19.59564983,-0.612675934,-19.89482849,-0.941242676,19.92650271
19.60568083,-2.902314606,-23.23677887,8.319998474,24.85143249
19.61571283,-2.983296204,-26.2316011,11.2326416,28.69092522
19.62574383,-1.778601379,-28.37379639,5.189109192,28.89917989
19.63577483,-1.748214569,-29.54780502,-2.400857391,29.69668588
19.64580683,-1.836530914,-27.6781929,-2.677033081,27.86793344
19.65583783,0.794996796,-23.38212662,3.470982056,23.65171413
19.66586883,3.520379333,-20.14391052,5.89728653,21.2825795
19.67589983,5.108277283,-19.47570007,5.769901428,20.94490756
19.68593183,6.534661102,-19.27736252,6.428531799,21.3458315
19.69596283,7.117099915,-18.82829636,7.010820923,21.31453647
19.70599383,5.388494568,-17.67479507,3.801195374,18.86487055
