Time (s),Acceleration x (m/s^2),Acceleration y (m/s^2),Acceleration z (m/s^2),Absolute acceleration (m/s^2)
0.002623208,-2.580633545,5.947881317,8.694070587,10.84545181
0.012636208,-2.813549194,6.025569763,8.896449738,11.10722143
0.022650208,-2.988086243,6.008804626,8.721912689,11.0048241
0.032663208,-3.099005585,5.890849915,8.504414978,10.79958436
0.042676208,-3.217409363,6.020031281,8.622519379,10.99728785
0.052689208,-3.235222321,5.960305481,9.01784729,11.28332729
0.062703208,-3.251388702,5.725892944,9.41796524,11.49153809
0.072716208,-3.19315979,5.586682434,9.410630493,11.40031826
0.082729208,-3.082240448,5.537734222,9.222322083,11.19008182
0.092743208,-2.876568146,5.479056244,9.156009979,11.05111851
0.102756208,-2.724634094,5.359155579,9.209897919,10.99847258
0.112769208,-2.643951874,5.174439697,9.174122314,10.85955008
0.122783208,-2.709066467,5.115013275,9.045390015,10.73878403
0.132796208,-2.714305573,5.071603546,8.849597168,10.55480873
0.142809208,-2.723586273,5.081483002,8.679999847,10.42025859
0.152823208,-2.656226349,5.242548065,8.527167664,10.35627525
0.162836208,-2.53318222,5.4982164,8.451125793,10.39562037
0.172849208,-2.323019257,5.774691467,8.339008942,10.40589017
0.182863208,-1.930385742,6.04937027,8.051007843,10.25377965
0.192876208,-1.567390594,6.264772339,8.038284302,10.31106688
0.202889208,-1.194216614,6.457272034,8.606053619,10.82527941
0.212903208,-0.742456055,6.325246582,9.605674896,11.52514536
0.222916208,-0.40954834,5.963448944,10.29124924,11.90127153
0.232929208,-0.310304718,5.451214142,10.71007828,12.0215557
0.242943208,-0.578546906,4.936135254,10.50066376,11.61740449
0.252956208,-1.022972717,4.571792908,9.570348358,10.65548362
0.262969208,-1.464255066,4.573738861,8.531808014,9.790550447
0.272983208,-1.435963898,4.89676712,7.807464294,9.327208546
0.282996208,-0.990041199,5.271887054,7.313790894,9.069978607
0.293009208,-0.58034317,5.480253754,7.031477966,8.93373728
0.303023208,-0.296683044,5.492677917,7.008425903,8.909296559
0.313036208,-0.346679077,5.347629547,7.028484192,8.838377577
0.323049208,-0.593066711,5.09809845,6.860683136,8.568039975
0.333062208,-0.778531036,4.828658752,6.724316711,8.314955872
0.343076208,-0.801583099,4.548291779,6.75605072,8.183746996
0.353089208,-0.680335236,4.258943481,6.813980255,8.064228576
0.363102208,-0.792901154,3.981719971,6.584208069,7.735281641
0.373116208,-0.777782593,3.923491058,6.526577911,7.654733639
0.383129208,-0.439037018,4.001778259,6.643035736,7.767683473
0.393142958,0.127235413,4.012106781,6.706354065,7.815905227
0.403156958,0.561931458,3.977229309,6.774462433,7.875751469
0.413169958,0.511935425,3.900139618,7.006779327,8.035429264
0.423182958,-0.011526031,3.832330627,6.828799438,7.830670001
0.433196958,-0.63647644,3.73488327,6.183341675,7.251770099
0.443209958,-1.235830078,3.59806778,5.733676758,6.881018594
0.453222958,-1.254391479,3.445235596,5.744903412,6.815208104
0.463236958,-0.918190613,3.328179016,6.247558136,7.138055213
0.473249958,-0.84244812,3.192411346,6.911876678,7.65997704
0.483262958,-0.737067261,3.06802002,7.493866425,8.131054604
0.493276958,-0.448467407,3.086431732,7.759264526,8.362617404
0.503289958,-0.134719849,3.112627258,7.564070435,8.180572072
0.513302958,0.018411713,2.800526276,7.175628204,7.702786933
0.523316958,-0.086669769,2.5812323,6.561605072,7.05159081
0.533329958,-0.436941376,3.076252899,6.216871948,6.950089675
0.543342958,-0.84484314,3.273692322,6.089337158,6.964972963
0.553356958,-1.222956848,2.684667206,5.400020599,6.153314873
0.563369958,-1.766027527,2.616858215,6.261329498,7.012207016
0.573382958,-1.984273682,2.477797394,6.153703308,6.924224604
0.583396958,-1.698667603,2.898572388,7.061864777,7.820302273
0.593409958,-1.221310272,3.332519989,8.846902771,9.532312253
0.603422958,-0.881965942,3.38042038,10.05204666,10.6418395
0.613436958,-1.037342834,3.327879639,10.86785019,11.41319547
0.623449958,-1.693428497,2.889740753,12.29124023,12.7394226
0.633462959,-1.996248779,2.290686493,14.47924026,14.79461566
0.643476958,-1.373394012,1.904040527,17.31658997,17.475007
0.653489958,-0.197439423,1.813029785,19.23724594,19.323501
0.663502958,1.064885559,2.670895844,20.09196854,20.29667129
0.673516958,1.013542328,3.269950104,19.66041595,19.95624707
0.683529958,1.939516754,4.266876984,21.33169052,21.84053536
0.693542958,3.924688568,5.520220642,24.90266464,25.80733854
0.703556958,5.874084778,6.012696533,28.72870834,29.93319353
0.713569958,7.371870117,6.527326355,31.48866898,32.9922223
0.723582958,7.403304749,7.005432129,32.2886055,33.8591058
0.733595958,6.569538574,7.697443085,31.39002411,32.98095027
0.743609958,6.502328339,8.444689178,29.38554245,31.25864927
0.753622958,7.260950775,9.080117798,25.69227264,28.20040459
0.763635958,7.419620819,9.678273926,21.4500943,24.67440586
0.773649958,7.287894745,9.646090851,16.88503738,20.76691999
0.783662958,5.971232758,8.792865143,13.01169205,16.80101866
0.793675958,3.966751099,6.865473175,9.657467194,12.49545953
0.803689958,2.912942505,5.661377106,7.211104431,9.619586888
0.813702958,2.207160187,4.27660675,5.076243896,6.994939134
0.823715958,1.794468384,1.445244598,1.24151825,2.617291786
0.833729958,2.107916565,-0.771345978,-2.372865601,3.266309541
0.843742958,1.186582489,-1.970202942,-4.360282745,4.929679833
0.853755958,0.249980164,-3.011437683,-5.721102905,6.470105521
0.863769958,-0.33230896,-4.462819519,-7.409142609,8.655783125
0.873782958,0.243992615,-5.020110626,-9.932145996,11.13142251
0.883795958,0.588875427,-5.054688721,-7.977360992,9.462290459
0.893809958,0.483045502,-5.341192932,-7.043752441,8.853029049
0.903822958,-0.460143127,-5.442681885,-8.641380157,10.22291391
0.913835958,-1.345851288,-5.696254578,-10.25786865,11.810271
0.923849958,-1.977986755,-5.865552521,-11.06873245,12.68203359
0.933862958,-3.641028442,-6.441405029,-10.38375687,12.75034092
0.943875958,-5.791306915,-8.353079681,-8.471782837,13.23194167
0.953889958,-6.195765839,-8.19994812,-6.830296326,12.34016254
0.963902958,-6.408024445,-7.368127899,-3.735482025,10.45494677
0.973915958,-6.015540619,-6.480922852,-2.648143158,9.230479518
0.983929958,-6.036347351,-6.16403183,-1.429078217,8.745000989
0.993942958,-6.109994202,-6.068829803,-0.306412811,8.617227694
1.003955958,-5.374274139,-5.271138611,0.318537598,7.534533229
1.013969958,-4.495301971,-3.960613861,0.443827057,6.007593897
1.023982958,-3.672762451,-3.124901733,0.758622437,4.881567665
1.033995958,-3.851790161,-3.046165466,1.574875031,5.157096359
1.044009958,-1.627415771,-2.364333344,1.060843964,3.060056236
1.054022959,-0.280067596,-1.202748871,0.781524811,1.461445769
1.064035958,-1.61124939,-0.16375946,1.360520782,2.11517341
1.074049958,-1.911824341,0.237705688,1.129251709,2.233111221
1.084062958,-0.985101471,0.460891571,0.699046326,1.292869566
1.094075958,-0.826431427,1.167422333,0.938099213,1.710524463
1.104089958,-0.605341187,2.093097382,0.735270996,2.299590842
1.114102958,1.095571747,2.734812927,0.654289398,3.017875712
1.124115958,4.086502075,4.054019623,2.313439178,6.203754923
1.134129958,9.587861938,6.505172424,7.142846375,13.61119463
1.144142958,19.21105042,10.78417419,16.36950943,27.44674316
1.154155958,34.1094191,17.82942352,30.96999756,49.40123038
1.164169958,49.68108765,27.72294983,42.13991959,70.79933079
1.174182958,63.09424484,37.92573303,45.1601889,86.36369388
1.184195958,72.23319031,43.16004822,46.0506871,95.92230881
1.194209958,74.06088959,39.96269714,43.30614441,94.64383061
1.204222958,65.53896103,33.02956467,35.34959015,81.46104025
1.214235958,50.82979889,25.44992661,25.3584668,62.24483157
1.224249958,37.71182785,17.96414337,17.48693573,45.28449324
1.234262958,28.25105164,12.71620651,12.09350143,33.25772998
1.244275958,21.32899612,9.504784698,8.028105469,24.69245806
1.254288958,16.11922989,6.793023834,4.972359924,18.18513427
1.264302958,11.62332916,3.581302643,1.187031555,12.2203336
1.274315958,7.229665833,0.513132935,-3.482657776,8.041161523
1.284329958,3.13822403,-1.894161072,-7.405999146,8.263481081
1.294342958,-0.119750977,-3.637884979,-9.604477386,10.27105317
1.304355958,-2.145039368,-5.015170898,-10.00414627,11.39456342
1.314368958,-3.783532104,-6.42029892,-9.188492432,11.83062748
1.324382958,-5.032684479,-7.955955505,-8.175249481,12.46835375
1.334395958,-5.693709869,-9.562265167,-6.876999207,13.08236849
1.344408958,-6.231391754,-10.66113007,-5.283562775,13.43152907
1.354422958,-6.916966095,-11.20719452,-4.27780426,13.84721049
1.364435958,-7.903863831,-11.61300064,-4.371958466,14.71213337
1.374448958,-9.016799469,-11.71583679,-5.402565308,15.74011488
1.384462958,-9.738897858,-11.16812576,-6.033353577,15.99920373
1.394475458,-10.07240433,-10.42956161,-5.910459137,15.65766942
1.404488458,-10.22837997,-9.555978241,-5.593268738,15.07385592
1.414502458,-9.66495163,-8.579259338,-4.650529175,13.73471523
1.424515458,-8.644523621,-7.78336441,-2.6502388,11.9303108
1.434528458,-7.592511292,-7.044351196,-0.706530762,10.38115105
1.444542458,-6.577472076,-6.220763855,0.98989151,9.107190953
1.454555458,-5.983058167,-5.453160095,2.076631622,8.357412216
1.464568458,-5.352868652,-4.804858246,2.782863007,7.712599567
1.474582458,-4.732109528,-4.30355072,3.138373718,7.12480168
1.484595458,-4.224515076,-3.773952026,3.107537842,6.461117006
1.494608458,-3.553610229,-3.222947845,3.123704224,5.724776551
1.504622458,-2.927162933,-2.626138916,3.011737061,4.95332702
1.514635458,-2.22781723,-2.061063995,2.80935791,4.135655483
1.524648458,-1.417252808,-1.552870789,2.82462616,3.521154093
1.534662458,-0.807420959,-1.163680115,2.839295654,3.172960735
1.544675458,-0.068258057,-0.797691193,2.782713318,2.895593861
1.554688458,0.921184387,-0.363144836,2.889890442,3.054819408
1.564702458,2.163151703,0.339494019,3.122207336,3.813483988
1.574715458,3.319197693,1.280137939,2.953508148,4.623747057
1.584728458,4.758454742,2.189047852,2.486030273,5.797858963
1.594742458,6.416257324,3.123704224,2.404000854,7.530279293
1.604755458,7.738757172,3.89175705,2.515219574,9.020003603
1.614768458,10.01507355,4.312082977,3.616928558,11.48816478
1.624782458,13.52467529,5.079986115,6.054309998,15.66453862
1.634795458,16.97559906,6.722520447,7.88635025,19.88863406
1.644808458,23.16373077,8.099656677,9.840985565,26.43875675
1.654822458,33.69807449,9.407936096,13.9491925,37.66496326
1.664835458,46.34317886,12.65049316,18.34854401,51.42367423
1.674848458,59.21251694,18.32848572,22.5184227,65.94797125
1.684862458,71.59806107,23.5390004,23.45562378,78.93372647
1.694875458,78.68761826,24.90595779,20.26979874,84.98772112
1.704888458,76.65559387,22.80402878,13.63215179,81.12915236
1.714902458,67.05590652,18.33731735,7.370672607,69.90764352
1.724915458,56.05947372,12.37162308,6.398444366,57.76384459
1.734928458,45.36930405,6.609505463,8.855884094,46.69567427
1.744942458,33.91856598,2.246378632,9.490414581,35.29282227
1.754955458,23.60770752,-0.913101196,7.309749298,24.7303466
1.764968458,14.91064316,-3.476670227,3.946543121,15.81106315
1.774982458,8.0396315,-5.295986938,0.431851959,9.636889977
1.784995458,3.459006958,-6.418352966,-2.976859589,7.875384241
1.795008458,0.663121033,-7.288194122,-5.143005066,8.944719346
1.805022458,-1.055754547,-8.056396637,-5.765560455,9.963023226
1.815035458,-1.857337646,-8.403973846,-5.158572693,10.03430873
1.825048458,-2.222278748,-8.522078247,-4.129462738,9.72711689
1.835062458,-2.404300232,-8.648415527,-3.274440765,9.554983677
1.845075458,-2.441123657,-8.915909271,-2.969824219,9.709396414
1.855088458,-2.998863831,-8.928333435,-3.295247498,9.978325424
1.865102458,-4.393363953,-8.539142761,-3.838767242,10.34189247
1.875115458,-5.989345093,-8.215815125,-4.724924469,11.21145771
1.885128458,-7.588469696,-7.996970215,-6.056255951,12.57834016
1.895142458,-8.918154602,-7.578440552,-7.205116882,13.74336029
1.905155458,-9.822723541,-7.070247345,-7.748187561,14.37041077
1.915168458,-10.31939072,-6.579567719,-7.724836121,14.47251289
1.925182458,-10.38136185,-6.075565796,-6.67881134,13.75833182
1.935195458,-9.881700897,-5.428760834,-4.861889648,12.27833164
1.945208458,-8.972940674,-4.715793457,-2.983595581,10.5666558
1.955222458,-7.634124756,-4.041595459,-1.631756744,8.790732888
1.965235458,-6.168372803,-3.319646759,-0.374670868,7.014930926
1.975248458,-4.84063385,-2.581831055,0.475261688,5.506674254
1.985262458,-3.742367706,-1.932331696,0.782123566,4.28379961
1.995275458,-2.831212463,-1.294957123,0.831670532,3.222476352
2.005288458,-1.917213135,-0.695304108,0.949325867,2.249527419
2.015302458,-1.01803299,-0.1685495,1.111438751,1.516606804
2.025315458,-0.522114258,0.199535065,1.242566071,1.362493295
2.035328458,-0.49726593,0.478854218,1.221459961,1.403046401
2.045342458,-0.391286316,0.698896637,1.199904785,1.442682565
2.055355458,-0.049996033,0.817150726,1.454525299,1.669095192
2.065368458,0.340242462,0.884061584,1.955982513,2.173291838
2.075382458,0.742306366,0.993933105,2.327659607,2.637597582
2.085395458,1.400787048,1.235231323,2.792143707,3.359176575
2.095408458,2.199526062,1.761387177,3.301235046,4.340340138
2.105421458,2.924917603,2.390079803,3.559747467,5.19032046
2.115435458,3.530408478,2.927761688,3.483406219,5.75931345
2.125448458,4.350253601,3.322640533,3.472928009,6.482736726
2.135461458,5.493875427,3.522924042,3.613785095,7.460100785
2.145475458,7.191794586,3.706442413,4.125870209,9.081983798
2.155488458,9.571545868,4.182003479,4.920567627,11.54623875
2.165501458,12.27896576,5.41513916,6.049519958,14.72051032
2.175515458,16.67801788,6.42957962,7.842341766,19.5191726
2.185528458,23.87535095,6.97025528,11.17366425,27.26660255
2.195541458,32.50056473,7.621251526,17.19384521,37.54994668
2.205555458,40.22584991,9.171427917,25.49228851,48.49835941
2.215568458,45.89186737,11.49789001,32.89424606,57.62201306
2.225581458,51.25895645,11.4290332,38.82581131,65.31115556
2.235595458,52.55556015,8.82474884,41.71570175,67.67690055
2.245608458,47.00300674,6.707252197,39.95446426,62.05343737
2.255621458,38.67567352,5.02430191,35.32923248,52.62324581
2.265635458,31.50333847,3.684887238,30.16197784,43.76966571
2.275648458,25.72370728,4.115541687,26.15481079,36.91505014
2.285661459,20.30572403,5.433251495,23.42643448,31.47444174
2.295675458,15.69082077,5.667214966,20.93396759,26.76845496
2.305688458,12.39063354,4.639452209,18.30857712,22.58885372
2.315701458,9.921218719,3.201093292,14.92980331,18.20924507
2.325715458,8.021369476,1.924547882,10.6978038,13.50885854
2.335728458,6.250851288,0.726439362,6.267915802,8.88187055
2.345741458,4.198768616,-0.456700287,2.266586609,4.793291969
2.355755458,1.998045044,-1.638043671,-1.365610199,2.922372714
2.365768458,0.229772186,-3.08089325,-4.213138733,5.224484324
2.375781458,-1.299298096,-4.574487305,-5.619314575,7.36144048
2.385795458,-2.390079803,-5.432503052,-5.543572083,8.121315307
2.395808167,-3.003504181,-6.097719727,-4.591102753,8.20252691
2.405821166,-3.96660141,-6.705306244,-3.795956268,8.666276165
2.415835167,-5.641917572,-7.12353653,-3.99579071,9.926849952
2.425848166,-7.257208557,-7.45464798,-4.579876099,11.36723879
2.435861167,-8.300988007,-8.013735352,-5.400619354,12.73942878
2.445875166,-8.998687134,-8.328979797,-6.066584473,13.6803407
2.455888167,-9.781110077,-8.028404846,-6.628066864,14.28484053
2.465901167,-10.4165387,-7.440876617,-6.721173248,14.45839179
2.475915167,-10.58254349,-7.21709198,-6.245312805,14.25063421
2.485928167,-10.29723679,-7.265890503,-5.274431763,13.66184031
2.495941167,-9.628726959,-7.191495209,-3.615880737,12.55008286
2.505955167,-8.720565491,-7.0907547,-1.804198151,11.38341757
2.515968167,-7.818990326,-7.05557785,-0.431702271,10.54059559
2.525981166,-6.962471466,-6.855444031,0.42825943,9.780415529
2.535995167,-6.168522491,-6.450086975,0.895737305,8.969762373
2.546008166,-5.524262238,-5.989943848,0.854273529,8.193087564
2.556021166,-4.939129028,-5.523813171,0.523760834,7.428447545
2.566035166,-4.352648621,-4.949158173,0.136216736,6.592288801
2.576048166,-3.699257355,-4.273612976,-0.0490979,5.65249356
2.586061167,-3.081941071,-3.717070313,-0.10298584,4.829656153
2.596075166,-2.353106689,-3.188818817,-0.162711639,3.966377644
2.606088167,-1.558409271,-2.732417908,-0.238454132,3.154616847
2.616101167,-0.672401733,-2.214794312,-0.278720398,2.331335024
2.626115167,0.381855927,-1.523382111,-0.112565918,1.574540596
2.636128167,1.540296936,-0.653990021,0.285306702,1.697532772
2.646141167,2.806962891,0.334703979,0.553249512,2.880477815
2.656155167,4.517904968,1.111438751,0.957708435,4.750154402
2.666168167,6.335275726,1.562600555,1.184187469,6.631722174
2.676181166,8.286468201,1.992955627,1.249302063,8.613836719
2.686195167,10.28436356,2.605332184,1.436263275,10.70601428
2.696208166,12.87727158,3.354823608,1.964664459,13.45135202
2.706221167,16.47414185,4.076023865,2.558329926,17.16264467
2.716235166,21.34740784,4.462071075,4.374203796,22.24310137
2.726248167,28.81627625,4.78914093,8.977880402,30.56003901
2.736261167,39.27353027,5.984405365,15.96549957,42.81495608
2.746275167,50.40647919,7.234306183,22.97602112,55.86632149
2.756288167,61.06461548,6.7841922,30.05285477,68.39653944
2.766301167,67.67950974,5.231920166,36.64080505,77.13907973
2.776315167,67.10724976,4.615801392,40.69497437,78.6178703
2.786328167,60.24267471,5.191204834,40.5087616,72.78109803
2.796341167,49.06871109,5.870641937,36.59230591,61.49146035
2.806355167,36.82956253,5.899232483,30.11302963,47.93758623
2.816368167,26.42904053,4.997208252,23.1182254,35.46714845
2.826381166,19.1541687,3.859723663,18.97424286,27.23603381
2.836394167,14.08046951,3.111878815,17.24653564,22.48080077
2.846408166,11.07112747,2.446512451,15.76012665,19.41486231
2.856421167,8.783734131,1.729204102,12.65333725,15.5000347
2.866434167,6.825356598,0.944386139,8.07480835,10.61507832
2.876448167,4.913981323,-0.094004517,3.321742401,5.932117824
2.886461167,3.021317139,-1.357826385,-0.596509552,3.365690626
2.896474167,0.02694397,-2.211950226,-4.84063385,5.322141096
2.906488167,-1.918710022,-2.633323975,-7.626191254,8.29304747
2.916501167,-2.431842957,-2.429298248,-5.777984619,6.723128468
2.926514166,-2.163002014,-2.896776123,-2.38229599,4.329575476
2.936528167,-2.008822632,-4.578828278,-0.297281799,5.008933343
2.946541166,-2.548151093,-6.346951447,0.542172546,6.86081757
2.956554167,-4.055067444,-7.353009338,0.065713348,8.39729936
2.966568166,-6.359974365,-7.809559937,-1.420695648,10.17137535
2.976581166,-8.111182709,-7.765401764,-3.098706207,11.64880808
2.986594167,-8.804391174,-7.469167786,-4.814288635,12.50932238
2.996608166,-8.558153229,-6.613996124,-5.702092438,12.22705155
3.006621167,-8.79316452,-6.171965332,-6.272256775,12.44002023
3.016634167,-9.327702942,-5.844895477,-6.002068634,12.53769011
3.026648167,-9.698781281,-5.308111725,-4.462819519,11.92305189
3.036661167,-9.307944031,-5.75687851,-3.041974182,11.35927283
3.046674167,-8.789122925,-6.365812225,-1.584604797,10.96737067
3.056688167,-8.215515747,-6.437213745,0.000299377,10.43706951
3.066701167,-7.602989502,-5.974825287,1.443298645,9.776865426
3.076714166,-6.899751892,-5.294190674,2.208507385,8.972877796
3.086728167,-6.02362381,-4.875211945,2.229912872,8.063761326
3.096741166,-5.292095032,-5.027744751,1.65450943,7.484777122
3.106754167,-5.475912781,-3.163671112,1.351838837,6.466985691
3.116768166,-6.058950348,-0.767753448,1.315763855,6.247524245
3.126781167,-4.081412659,-5.022505646,1.319356384,6.604861355
3.136794167,-2.65847168,-7.011868744,0.973126373,7.561795415
3.146808167,-3.347488861,-5.386847992,0.442030792,6.357609943
3.156821167,-3.242856445,-3.486399994,0.182919617,4.764930475
3.166834167,-0.951421509,-2.644700317,-0.116457825,2.813041962
3.176848167,1.755848694,-3.153791656,-0.299826508,3.622057755
3.186861167,4.36671936,-3.738026733,-0.912053375,5.820044948
3.196874166,7.299420776,-3.346291351,-1.665586395,8.200816271
3.206888167,9.533075867,-0.817001038,-1.60421402,9.701573522
3.216901167,11.75295959,1.943857727,-0.759819946,11.93683243
3.226914166,14.75571533,3.917353821,0.829275513,15.28935884
3.236928167,19.13306259,6.064937897,3.538042603,20.38075811
3.246941166,24.85521332,8.48899704,6.77131897,27.12370661
3.256954167,30.24475571,11.312276,9.785001984,33.74105956
3.266968166,35.28043396,14.41741882,12.21145615,40.02112751
3.276981167,40.06268921,17.06286758,14.57758575,45.92021911
3.286994167,45.40867218,18.53116425,19.16584442,52.65625461
3.297008167,49.67165726,19.00253403,23.60291748,58.18477075
3.307021167,50.47159378,18.51903946,25.529561,59.51550291
3.317034167,48.35215118,17.34817429,26.06365036,57.60385009
3.327048167,45.03968948,16.66574341,25.45037567,54.35110168
3.337061167,40.35443253,16.42758865,23.70949585,49.60328706
3.347074166,34.78945496,15.90981537,21.18394775,43.72857239
3.357088167,29.05892166,14.51217178,18.31770813,37.29024657
3.367101166,23.8614299,12.36952744,15.0985025,30.82754975
3.377114167,19.21060135,10.22044647,11.98497711,24.84239132
3.387128166,15.06437347,8.286468201,9.321416016,19.55734389
3.397141417,11.58426041,6.360722809,6.80170578,14.86327976
3.407154417,8.314459991,4.442012787,4.389172668,10.39839215
3.417168417,5.550457764,2.649789734,2.925516357,6.810845247
3.427181417,3.257675629,0.83900528,1.867666168,3.847669071
3.437194417,1.227148132,-0.858764191,0.708626404,1.65696103
3.447208417,-0.643661499,-2.366878052,-0.716260529,2.555277085
3.457221417,-2.090103607,-3.598367157,-1.670077057,4.483964391
3.467234416,-3.15918045,-4.364923096,-1.57846756,5.614671369
3.477248417,-4.39830368,-5.13088028,-0.859662323,6.812490515
3.487261416,-5.183121643,-6.121819611,-0.210162964,8.024063421
3.497274416,-6.154751129,-6.553821259,0.135019226,8.991760937
3.507288416,-7.592361603,-6.447691956,0.374820557,9.967807016
3.517301416,-7.444768524,-5.11800705,0.013172607,9.034309495
3.527314417,-8.193212128,-5.111570435,-1.424437866,9.761449714
3.537328416,-10.86829926,-7.438631287,-2.831062775,13.47100889
3.547341417,-11.64398621,-7.86060379,-3.823948059,14.56001667
3.557354417,-10.99388809,-7.820936279,-3.872447205,14.03668291
3.567368417,-11.22141495,-7.791896667,-2.93344986,13.97279268
3.577381417,-12.23346039,-6.36177063,-1.318757629,13.85167139
3.587394417,-13.17275711,-6.207441559,-0.464334412,14.56947038
3.597408417,-11.64054337,-6.976392517,0.594862976,13.5840408
3.607421417,-9.03191803,-6.065536652,1.588646393,10.9950023
3.617434416,-7.665858765,-4.384682007,1.610351257,8.976862373
3.627448417,-6.621779938,-3.113525391,0.431103516,7.329929068
3.637461416,-4.942571869,-2.399510193,-0.898132324,5.567163328
3.647474417,-3.631747742,-1.833836517,-1.804497528,4.450703243
3.657488416,-2.745889893,-1.375789032,-2.377206573,3.883789111
3.667501417,-1.757046204,-0.998423767,-2.914589081,3.546673214
3.677514417,-0.614771576,-0.657432861,-3.302582245,3.423041271
3.687528417,0.19309845,-0.379610596,-3.410208435,3.436700858
3.697541417,1.166673889,-0.339494019,-3.459156647,3.666353619
3.707554417,1.86392395,-0.71147049,-3.585344238,4.103059353
3.717568417,2.55084549,-1.285227356,-3.570075989,4.572096306
3.727581417,3.95253067,-1.349892883,-2.829416199,5.044829583
3.737594417,5.493276672,-0.880319366,-1.850901031,5.863180486
3.747608417,7.451803894,-0.729133759,-1.370699615,7.611822039
3.757621417,9.904902649,-0.677640839,-1.21098175,10.00163839
3.767634416,13.01393738,-0.458346863,-0.468675385,13.03043762
3.777648417,17.04056396,0.726439362,0.413140869,17.06104392
3.787661416,21.33034332,1.695524139,0.617016907,21.40651906
3.797674417,25.79615662,1.380130005,1.113235016,25.8570251
3.807688416,30.31031937,0.933309174,2.816692657,30.45521768
3.817701417,34.72733414,0.652642822,5.774541779,35.21021175
3.827714417,40.46475311,0.910855865,10.04426285,41.7026752
3.837728417,48.03391296,1.523980865,14.48911972,50.19475971
3.847741417,55.83374313,2.587369537,18.47398315,58.86755819
3.857754417,60.66659317,4.446054382,20.68009552,64.2484963
3.867768417,60.49475052,6.361471252,20.45795746,64.17640673
3.877781417,56.41438568,7.232509918,18.87215515,59.92537319
3.887794416,49.68767395,7.111262054,16.94940353,52.97846044
3.897808417,41.57993408,6.872658234,15.48754349,44.89975894
3.907821416,33.80614975,6.542295227,14.15711014,37.23011087
3.917834416,27.67145691,5.919141083,12.59840149,30.97523977
3.927848416,22.62515076,5.534890137,10.76636124,25.66022194
3.937861416,18.26995743,5.511987762,8.882678375,21.04935459
3.947874417,14.47250427,5.179080048,7.240742798,16.99130973
3.957888416,11.03999222,4.413871307,5.769452362,13.21553134
3.967901417,8.013735352,3.49852478,4.540208588,9.852569408
3.977914417,5.492827606,2.443069611,3.305576019,6.860508513
3.987927417,3.290457458,1.078507233,2.189347229,4.096770609
3.997941417,0.938847656,-0.364791412,1.212628326,1.576380396
4.007954417,-1.51754425,-1.584455109,0.22932312,2.205907441
4.017967416,-3.377276917,-2.532134399,-0.626896362,4.267400032
4.027981417,-4.965174866,-3.248843994,-1.374741211,6.090801437
4.037994416,-5.771847382,-3.471580811,-1.473535767,6.894737354
4.048008417,-5.331014099,-3.76646759,-0.50669632,6.546963464
4.058021416,-4.807253265,-4.107757874,0.725990295,6.364779699
4.068034417,-4.728966064,-4.182602234,1.88622757,6.58901631
4.078048416,-5.038971405,-4.223616943,2.471660156,7.024192255
4.088061417,-5.889802094,-4.170477448,2.027833099,7.49631629
4.098074417,-6.640491028,-4.22167099,1.035845947,7.936725009
4.108087417,-7.449857941,-4.286186829,-0.385747833,8.603521503
4.118101417,-8.343499603,-4.639003143,-2.026186523,9.759086413
4.128114417,-8.957373047,-5.29928009,-3.270698547,10.90937076
4.138127416,-9.521250458,-5.783373413,-3.13343399,11.57238207
4.148141417,-9.833950195,-5.992937622,-1.633553009,11.631439
4.158154417,-9.715396729,-6.057902527,0.596509552,11.46485675
4.168167416,-9.548493805,-6.239624634,2.983146515,11.79007263
4.178181417,-9.366322632,-6.637197876,4.508474579,12.33315606
4.188194416,-8.910071411,-6.70695282,4.885839844,12.17555008
4.198208417,-8.44917984,-6.586004333,4.394711151,11.57918733
4.208221416,-7.72603363,-6.625522156,3.252586212,10.68496404
4.218234417,-6.706204376,-6.382128296,2.068099365,9.485872322
4.228248416,-5.449268188,-5.698499908,1.228794708,7.979809611
4.238261417,-4.266876984,-4.984035645,0.688418427,6.597027393
4.248274417,-3.350033569,-4.357588348,0.206420746,5.500355503
4.258287417,-2.683769073,-3.603157196,-0.331859894,4.505051521
4.268301417,-1.666035461,-2.915786591,-1.024469604,3.510986125
4.278314417,-0.744701385,-2.493664398,-1.998045044,3.281025188
4.288328417,0.525706787,-2.244732056,-3.134781189,3.891277776
4.298341417,2.385289764,-1.404529266,-4.161196747,4.997786319
4.308354416,3.981420593,-0.072748718,-5.150339813,6.510222923
4.318368417,5.350623322,1.058748322,-6.084846497,8.171626204
4.328381416,7.167095947,1.52577713,-6.723717957,9.945031087
4.338394416,9.605076141,1.176253967,-6.654711456,11.74420051
4.348408416,11.91836563,0.464334412,-5.185217285,13.00574965
4.358421416,13.95218628,0.401465149,-2.76145752,14.22850392
4.368434417,17.03816895,1.094523926,-0.75233551,17.08985642
4.378448416,22.03477844,2.330354004,1.117126923,22.1858059
4.388461417,27.96275116,4.175117798,2.715054016,28.40279175
4.398474667,34.36269241,6.615493011,4.496798859,35.28144807
4.408487666,41.3221701,8.95348114,6.920858002,42.84372582
4.418501667,48.96826996,10.17284546,9.737850037,50.95295841
4.428514666,55.80664948,10.69735474,12.96678543,58.2833857
4.438527666,61.17104416,11.472892,16.56051224,64.40321778
4.448541666,64.78348206,12.69929169,20.46065186,69.11446904
4.458554666,65.16728394,14.20096893,22.95790878,70.53728085
4.468567667,60.72212769,15.23801239,22.69774979,66.59250452
4.478581666,51.9895871,14.34407135,19.57688965,57.37529222
4.488594667,41.59909424,12.03242844,15.62151489,46.03580892
4.498607667,32.37931686,9.652677155,13.12186295,36.24607046
4.508621667,25.29350189,8.252937927,12.22462875,29.27992095
4.518634667,19.59709763,7.235503693,11.07052872,23.64223668
4.528647667,14.74254272,5.820945282,9.136101379,18.29465273
4.538661667,10.5597908,3.853436737,7.165449371,13.33048466
4.548674667,6.893614655,1.645228729,5.17414032,8.774988811
4.558687666,3.481310577,-0.457748108,3.00245636,4.619935157
4.568701667,0.064665527,-2.325114899,0.698746948,2.428700933
4.578714666,-2.554887085,-3.887416077,-1.369651794,4.84926776
4.588727667,-3.90807312,-4.685556335,-2.099983063,6.452705057
4.598741666,-4.350103912,-5.301824799,-1.22160965,6.965994572
4.608754667,-4.410129089,-6.36057312,-0.021854553,7.739935828
4.618767667,-4.155807953,-7.330106964,0.988095245,8.483957806
4.628781667,-3.899391174,-7.99517395,1.85344574,9.086435997
4.638794667,-4.153113556,-8.197553101,1.919907532,9.387985619
4.648807667,-4.75291626,-8.200546875,0.934806061,9.524339578
4.658821667,-5.630690918,-8.136031036,-1.193019104,9.966091301
4.668834667,-7.017856293,-8.156388702,-3.545227661,11.32897272
4.678847667,-8.393495636,-8.193960571,-5.703739014,13.04317437
4.688861667,-9.923014984,-8.422385559,-7.5154216,15.02944998
4.698874667,-11.55222702,-8.786278839,-8.994196472,17.07478302
4.708888667,-12.7057283,-9.391170959,-8.81427063,18.09201455
4.718901667,-13.08039917,-10.063423,-7.135062561,17.97994557
4.728914666,-12.91484344,-10.59017761,-4.893024902,17.40364145
4.738927667,-12.60274246,-10.69810318,-2.623743896,16.73805727
4.748941666,-11.69428162,-9.982890472,-0.36973114,15.3802154
4.758954667,-9.963580627,-9.100475464,1.277443542,13.55446253
4.768968666,-7.886799316,-8.26551178,1.948498077,11.58951825
4.778981667,-6.185437317,-7.322023773,1.584455109,9.715048375
4.788994667,-5.202880554,-6.13244751,0.70907547,8.073392505
4.799007667,-4.698579254,-5.010231171,-0.62719574,6.897277571
4.809021667,-3.815565491,-3.994293823,-1.751058655,5.794750173
4.819034667,-2.388882294,-2.924318848,-2.076332245,4.309240644
4.829048667,-1.176253967,-1.737436981,-1.796564026,2.762227898
4.839061667,-0.353115692,-0.794996796,-1.383423157,1.634187941
4.849074666,0.218695221,-0.080233154,-1.189875641,1.21246402
4.859088667,0.831071777,0.204175415,-1.064885559,1.366143899
4.869101666,1.625320129,0.129630432,-0.355061646,1.668693604
4.879114666,2.43139389,0.111817474,0.846938782,2.577107816
4.889127667,3.04691391,0.454754333,1.884580994,3.611389123
4.899141666,4.095782776,1.222058716,2.557581482,4.980972504
4.909154667,5.274282074,2.309846649,2.818039856,6.410521942
4.919167667,6.474336548,3.299438782,2.609224091,7.720840651
4.929181667,8.64931366,4.009412384,2.673141174,9.901095807
4.939194667,11.29910339,4.535717926,3.887715454,12.7811113
4.949208667,14.22222473,4.693639526,5.995033264,16.13202877
4.959221667,19.45399521,4.878355408,10.06521927,22.44025223
4.969234667,26.1944783,5.752387848,15.02081406,30.73866481
4.979248667,35.28567307,7.451205139,20.68503525,41.57487059
4.989261667,46.84283981,10.45695465,27.01776627,55.07775628
4.999274666,60.46630966,14.35559738,33.32220612,70.51685756
5.009287667,72.15654968,18.14721268,37.09226624,83.13678611
5.019301666,76.21790405,19.94901581,37.87154572,87.41502219
5.029314667,70.64708862,19.31448532,36.2393399,81.71505511
5.039328666,58.93334747,16.04034393,32.23337036,69.06100378
5.049341667,45.08998489,12.063414,25.7048465,53.28575634
5.059354667,33.44629807,8.953181763,19.08680878,39.53631985
5.069368667,25.74077179,7.140451355,15.85996902,31.06625171
5.079381667,20.2795285,6.146667938,14.88714203,25.8972547
5.089394667,15.79410599,5.283862152,13.30882416,21.31895362
5.099407667,11.8590889,3.857927399,10.06716522,16.027146
5.109421667,7.917784882,2.560275879,5.952821045,10.23144215
5.119434667,5.434898071,0.342487793,2.109263763,5.839897992
5.129448667,3.027604065,-1.416204987,-0.826581116,3.443146712
5.139461667,0.781075745,-2.008523254,-2.41507782,3.236795616
5.149474666,-0.396824799,-1.987267456,-2.91818161,3.552813782
5.159488667,-1.059347076,-2.98374527,-3.048261108,4.395093611
5.169501666,-1.524130554,-3.898942108,-1.931134186,4.610206368
5.179514667,-2.089504852,-4.389921112,-1.142424316,4.99425382
5.189528666,-2.23605011,-4.691843262,-0.640218658,5.236715881
5.199541667,-2.595752106,-5.004842377,-0.795894928,5.693840966
5.209554667,-3.345542908,-5.227579193,-1.51754425,6.389302162
5.219568667,-4.076323242,-5.280569,-2.102527771,6.994386547
5.229581667,-4.426295471,-5.379363556,-2.329904938,7.345617801
5.239594667,-4.667893066,-5.738466797,-2.917882233,7.951934581
5.249607666,-6.161038055,-5.71466629,-4.667893066,9.612753321
5.259621667,-7.401807861,-5.414091339,-6.681505737,11.34643836
5.269634666,-7.606582031,-5.484445038,-7.474257202,11.99182006
5.279648667,-7.380102997,-5.983207855,-6.093977509,11.28721659
5.289661666,-7.342980194,-7.094047852,-3.596720581,10.82502988
5.299674666,-7.671247559,-8.44798233,-1.295406189,11.48453402
5.309688667,-8.101003876,-9.323960724,0.496218109,12.36158322
5.319701666,-8.077951813,-9.187444611,1.841919708,12.37154445
5.329714667,-8.647517395,-6.315965881,2.575693817,11.01386312
5.339728666,-7.953261108,-3.499422913,2.892135773,9.157771143
5.349741667,-5.451812897,-5.37307663,2.533032532,8.062783027
5.359754667,-3.664828949,-6.388415222,1.589394836,7.534520305
5.369768667,-2.992726593,-5.288652191,0.683179321,6.114980658
5.379781667,-3.410358124,-4.892875214,0.683927765,6.003209773
5.389794667,-4.45683197,-5.137616272,0.864003296,6.856015889
5.399807916,-5.224884796,-4.375101929,1.814077606,7.052078813
5.409820917,-4.101620636,-3.235072632,2.862198029,5.95660678
5.419833917,-2.253264313,-2.232756958,3.729344788,4.895959175
5.429847917,-0.751886444,-1.255439301,4.557871857,4.787030073
5.439860917,0.367336121,-0.810115356,5.060227203,5.137812965
5.449873917,1.499880981,0.214204559,4.549788666,4.795425263
5.459887917,2.135159912,1.630708923,4.68271225,5.398695533
5.469900917,2.845133514,2.296224976,5.643264771,6.724126049
5.479913916,4.140090637,2.689906311,6.567891998,8.216638713
5.489927917,4.49425415,4.133504333,6.446494446,8.879271878
5.499940916,4.514462128,5.593418427,5.132826233,8.832474349
5.509953917,4.856800232,5.475912781,2.382146301,7.69732098
5.519967916,5.947881317,4.764891357,0.941542053,7.679061352
5.529980917,7.384593658,4.670288086,0.956361237,8.789678101
5.539993917,8.530011749,5.50061142,0.936003571,10.19283715
5.550007917,8.267008667,7.469317474,0.907113647,11.1784163
5.560020917,9.397158508,8.967851257,3.917802887,13.56753934
5.570033917,15.41464508,8.455766144,11.95503937,21.26109664
5.580047917,25.02256531,9.007967834,23.41505814,35.43356046
5.590060917,36.54036392,11.67527115,35.63280121,52.3565342
5.600073916,51.86280075,14.20920181,44.4303067,69.75459606
5.610087917,69.32384033,15.42123138,50.87410675,87.36008215
5.620100917,79.17201096,15.35012924,53.37271088,96.70822123
5.630113916,76.75004745,14.40409653,50.31636658,92.89663356
5.640127917,65.14483063,12.83431091,42.79570587,78.99392974
5.650140916,51.01601166,9.976603546,32.39443542,61.25002457
5.660153917,36.35594742,6.95738205,21.74587921,42.93068064
5.670167916,23.32584366,5.88785614,13.07051971,27.37882974
5.680180917,15.31330582,6.073769531,7.738457794,18.20087197
5.690193917,11.27440475,4.893623657,5.133724365,13.31971775
5.700207917,8.36730011,3.417393494,3.622017975,9.737006913
5.710220917,5.779780884,2.24188797,1.881886597,6.478690137
5.720233917,3.298241272,0.805475006,0.186961212,3.400314687
5.730247917,0.783470764,-1.197659454,-1.376088409,1.985405228
5.740260917,-1.020577698,-2.952310638,-2.349813538,3.908879712
5.750273916,-1.805545349,-3.677851868,-2.029180298,4.57210685
5.760287917,-2.640359344,-4.582869873,-1.376836853,5.465333792
5.770300916,-4.964576111,-6.907685394,-1.355730743,8.614008319
5.780313917,-6.182443542,-7.602390747,-1.139280853,9.864933557
5.790327916,-5.508694611,-6.084696808,-0.62599823,8.231714605
5.800340916,-5.763464813,-5.755980377,-0.888402557,8.193783977
5.810353917,-6.618786163,-6.352040863,-1.332528992,9.269972325
5.820367916,-8.163424072,-7.211104431,-1.72007309,11.02724676
5.830380917,-10.75872711,-8.062533875,-2.558329926,13.68574856
5.840393917,-12.81080978,-8.545878754,-3.887116699,15.88264988
5.850407917,-14.31488205,-8.990603943,-5.162314911,17.67473628
5.860420917,-15.11631546,-9.059909821,-6.323600006,18.72359143
5.870433917,-15.02305939,-8.932824097,-6.498436432,18.64718037
5.880447917,-14.17387527,-8.616232452,-5.411846008,17.44781589
5.890460917,-12.79853531,-8.148305511,-3.219804382,15.51014278
5.900473916,-11.07531876,-7.361092529,-0.878972168,13.3274514
5.910487917,-9.25540329,-6.484814758,0.954115906,11.34132486
5.920500916,-7.98349823,-5.763015747,1.928589478,10.03334699
5.930513917,-6.868466949,-5.082530823,2.26763443,8.840255862
5.940527916,-5.803880768,-4.365072784,2.051334229,7.54631463
5.950540917,-5.017116852,-3.672612762,1.30229187,6.352598691
5.960553917,-4.359534302,-3.105741577,0.421822815,5.369274118
5.970567917,-3.433260498,-2.603086853,-0.392483826,4.326359019
5.980580917,-2.373763733,-2.122735748,-1.117276611,3.374769376
5.990593917,-1.334774323,-1.726659393,-1.644480286,2.732634363
6.000607917,-0.448018341,-1.402433624,-2.068099365,2.538616846
6.010620917,0.260458374,-1.330732727,-2.029329987,2.440669652
6.020633917,0.854423218,-1.557660828,-1.756597137,2.498395444
6.030647917,1.296753387,-1.814376984,-1.460512848,2.665826507
6.040660917,1.913321228,-2.089504852,-1.062191162,3.025736062
6.050673916,2.79648468,-2.335293732,-0.325123901,3.657817509
6.060687917,4.10820694,-1.96690979,0.299227753,4.564606843
6.070700916,5.654940491,-1.18763031,0.543968811,5.803853873
6.080713917,7.416627045,-0.360151062,0.565523987,7.446870677
6.090727916,9.572593689,0.446072388,0.039667511,9.583063394
6.100740917,13.47632584,1.587299194,-0.719703369,13.58855584
6.110753917,18.49389175,3.042423248,-1.275647278,18.78583635
6.120767917,22.21245895,4.280648346,-2.072889404,22.71594492
6.130780917,23.97324738,5.05828125,-3.064577179,24.69199126
6.140793917,24.1388031,5.066065063,-3.31021637,24.88582654
6.150807917,25.12854492,5.52635788,-1.499581604,25.77272097
6.160820917,27.95077606,7.248227234,3.350332947,29.06901119
6.170833916,32.95187622,9.526639252,10.6858287,35.9272868
6.180847917,39.41304016,13.33292404,19.60757584,45.99577838
6.190860916,48.29781418,19.55144257,26.69982742,58.54757506
6.200873917,60.50971939,26.24267807,29.5216095,72.260845
6.210887916,69.31411057,30.34489746,28.21183319,80.75373835
6.220900916,68.97296997,30.2329303,22.98829559,78.73856993
6.230913917,59.91186264,27.57161453,14.48507813,67.5236455
6.240927916,48.02133911,23.28108673,5.132975922,53.61348199
6.250940917,39.56572266,19.53467743,0.495619354,44.1281732
6.260953917,33.51515488,17.05164093,1.995350647,37.65641365
6.270967917,28.4372644,14.30485291,6.220464478,32.43456492
6.280980917,23.86726776,10.34408936,8.664132843,27.41740055
6.290993917,18.58385468,6.044580231,8.407416687,21.27395732
6.301007917,14.51875809,2.028731232,6.676266632,16.10846433
6.311020917,10.23616379,-2.689457245,4.450395355,11.48121284
6.321033916,3.957769775,-6.297853546,3.662583618,8.291044545
6.331047917,-1.634900208,-7.931107178,3.170556793,8.696423985
6.341060916,-4.06838974,-8.015381927,2.70756958,9.387708749
6.351073917,-4.392615509,-7.791746979,2.465223541,9.278131229
6.361087916,-4.083358612,-7.484436035,1.657652893,8.685528967
6.371100917,-3.548371124,-7.428602142,0.278570709,8.237273157
6.381113917,-3.351380768,-7.485932922,-0.803229675,8.241123872
6.391127917,-4.121978302,-7.520361328,-1.792073364,8.761168105
6.401141667,-5.1226474,-7.297624512,-3.202590179,9.473828358
6.411155667,-6.504423981,-7.191046143,-4.93538681,10.88010657
6.421168667,-7.57978775,-7.696544952,-6.91876236,12.82806529
6.431181666,-8.62236969,-8.39768692,-8.461604004,14.71275457
6.441194667,-9.713899841,-8.891360321,-9.898316345,16.47400391
6.451208666,-11.05256607,-9.098679199,-10.9513765,18.02436759
6.461221667,-12.8543692,-9.777367859,-10.63074326,19.33505707
6.471235666,-14.01011581,-11.1955188,-8.57671463,19.87921075
6.481248667,-13.55236771,-12.33824249,-4.755311279,18.93441004
6.491261667,-12.30995132,-12.34617599,-0.599653015,17.44484299
6.501275667,-10.89703949,-11.67347488,3.209326172,16.28850085
6.511288667,-9.345216522,-10.58613602,6.11373642,15.38756383
6.521301667,-8.018974457,-9.752968597,7.262297974,14.56589577
6.531315667,-6.409820709,-8.657247162,7.020850067,12.8579184
6.541328667,-5.125192108,-7.048991547,5.811963959,10.47543799
6.551341666,-4.121529236,-5.642516327,4.320615234,8.21539468
6.561355667,-3.331322479,-4.588707733,2.873424683,6.356926736
6.571368667,-2.74618927,-3.720962219,1.614243164,4.898254417
6.581381666,-2.313588867,-3.221750336,0.554447021,4.004969435
6.591395667,-1.687890015,-3.055595856,-0.216749268,3.497516116
6.601408666,-0.727038116,-3.086282043,-0.418080597,3.198204599
6.611421667,0.327818298,-3.07849823,-0.263003082,3.107054362
6.621435666,1.87799469,-2.724783783,-0.319884796,3.32470104
6.631448667,3.500470734,-2.355651398,-0.717607727,4.279877301
6.641461667,4.998405762,-1.528321838,-1.283131714,5.382030732
6.651475667,6.034401398,-0.195044403,-1.611848145,6.24900768
6.661488667,6.57702301,0.852327576,-1.788331146,6.868902552
6.671501667,7.095544739,1.424288177,-2.327809296,7.602239675
6.681515667,7.771539001,1.703757019,-3.315754852,8.619387256
6.691528667,8.490344238,1.438957672,-4.608616333,9.767081907
6.701541666,9.302106171,1.220711517,-5.66092804,10.95743684
6.711555667,10.49452652,1.507215729,-5.614823914,11.99720941
6.721568666,12.53448441,2.504591675,-3.553310852,13.26696261
6.731581667,16.52009628,3.716022491,-0.226778412,16.93439792
6.741595666,22.96584229,6.375242615,2.743644562,23.99169056
6.751608666,31.48552551,11.48337021,4.774022369,33.85258332
6.761621667,40.69677063,17.2299202,6.248156891,44.63335921
6.771635666,50.25619171,21.01734421,8.499175873,55.13301691
6.781648667,58.38698364,23.44858841,10.69900131,63.82276072
6.791661667,60.95624084,25.93327148,9.730964355,66.95438399
6.801675667,59.28556503,26.46376831,6.770570526,65.27595177
6.811688667,56.1606633,25.29904037,5.566324768,61.84695237
6.821701667,53.28499329,23.65979919,7.242089996,58.74967638
6.831715667,49.48334885,22.27592697,8.749006348,54.96693413
6.841728667,43.83484497,19.98823425,8.189020844,48.86801822
6.851741666,37.98096817,17.64710266,7.097191315,42.47757408
6.861755667,32.20971954,15.99588638,7.15736618,36.66827382
6.871768666,26.58232178,13.49443817,7.211703186,30.6712953
6.881781667,21.2629834,9.904902649,6.4776297,24.33477442
6.891795666,16.37609573,6.278992767,5.70882843,18.44432118
6.901808667,11.62856827,3.132386169,4.784949646,12.95882657
6.911821667,7.147486725,0.352067871,4.028422852,8.21210746
6.921835667,3.173700256,-2.258802795,3.705095215,5.376085373
6.931848667,0.209264832,-4.298610992,3.991599426,5.869813814
6.941861667,-1.550924835,-5.743855591,4.510869598,7.466270115
6.951875667,-2.24308548,-6.674320679,5.112618256,8.701543221
6.961888667,-2.038460999,-7.649692383,5.438340912,9.60461705
6.971901666,-1.419198761,-8.839118958,5.422324219,10.46641051
6.981915667,-1.422940979,-10.07075775,4.714745636,11.21043037
6.991928667,-2.178419952,-10.77414505,3.191513214,11.44611164
7.001941666,-3.617527313,-10.7575296,0.984802094,11.39213686
7.011955667,-5.841752014,-10.62819855,-1.557960205,12.22750633
7.021968666,-8.112829285,-10.45440994,-4.664150848,14.03092974
7.031981667,-10.39782761,-10.24918671,-9.000034332,17.15113014
7.041995666,-12.5597818,-9.973609772,-12.26564346,20.19076572
7.052008667,-14.10876068,-9.861193542,-12.65782791,21.36634909
7.062021667,-14.78101273,-10.09815079,-9.994266815,20.50210613
7.072035667,-13.87689285,-10.2426004,-6.29500946,18.36045104
7.082048667,-11.67601959,-9.647737427,-2.717898102,15.38815262
7.092061667,-9.535470886,-8.826395416,0.121397552,12.99404473
7.102075667,-7.986641693,-8.13438446,1.785187683,11.53869798
7.112088667,-6.756200409,-7.080126801,2.184257813,10.027234
7.122101666,-6.099815369,-6.165528717,1.51874176,8.805002466
7.132115667,-5.920488281,-5.599555664,0.474213867,8.162847782
7.142128666,-5.558241577,-4.898563385,-0.302670593,7.414956652
7.152141667,-5.039869537,-4.033063202,-0.516426086,6.475537016
7.162155666,-3.940256195,-3.09840683,-0.045056305,5.012761099
7.172168666,-2.509082336,-2.069147186,0.652493134,3.317018471
7.182182666,-0.792452087,-0.990340576,1.046473846,1.644342507
7.192195666,1.121318207,0.250578918,1.251697083,1.699085019
7.202208667,2.205812988,1.179547119,1.259331207,2.80051021
7.212222666,2.711461487,1.808090057,0.986598358,3.405082873
7.222235667,3.258873138,2.628084869,0.214653625,4.192035352
7.232248667,3.815415802,3.379522247,-1.079704742,5.210022139
7.242262667,4.653822327,3.979774017,-2.605930939,6.654888394
7.252275667,5.603148193,4.478536835,-4.116739197,8.270435507
7.262288667,6.536756744,4.940326538,-5.338049469,9.779099507
7.272302667,6.459816742,5.135820007,-5.774990845,10.07255671
7.282315667,6.275699615,5.298531647,-4.992118835,9.61145638
7.292328666,7.007228394,5.772296448,-3.372636566,9.684799092
7.302342667,8.237070923,6.675518188,-1.470092926,10.70388031
7.312355666,10.79974182,7.720345459,0.33934433,13.27980843
7.322368667,15.42991333,8.948691101,2.169139252,17.96848527
7.332382666,23.6145932,10.94209579,4.022584991,26.33552093
7.342395667,34.07573914,14.41457474,6.73030426,37.60628881
7.352408667,43.44685181,19.19024368,10.01267853,48.54017013
7.362422667,51.70188538,24.45883759,12.69345383,58.58705879
7.372435667,59.62535843,27.87533295,15.26899796,67.5674467
7.382448667,64.98601089,29.29273544,16.90674225,73.26038421
7.392462667,63.77622665,29.95136581,15.23606644,72.08764888
7.402475291,56.35196548,28.71942764,10.8968898,64.18015071
7.412488292,46.10816757,25.68957825,6.871610413,53.22721651
7.422502291,35.86676468,22.26080841,5.102289734,42.52060395
7.432515291,28.01783661,19.07348648,6.785090332,34.56637825
7.442528292,21.86937241,16.04932526,9.134155426,28.62312153
7.452542291,16.18389542,12.8251799,9.343719635,22.6651452
7.462555292,11.36915771,9.349707184,8.096662903,16.79972386
7.472568292,7.394323425,5.958658905,6.656507721,11.59701384
7.482582292,3.707041168,2.711162109,4.809797974,6.65031659
7.492595292,0.520767059,-0.067359924,2.825224915,2.873609491
7.502608292,-1.75869278,-2.019450531,1.280886383,2.968476152
7.512622292,-2.887196045,-3.432811432,0.510588226,4.51450946
7.522635292,-3.443888397,-4.665797424,0.209264832,5.802915187
7.532648291,-3.188968506,-5.688321075,0.117954712,6.522302515
7.542662292,-2.410138092,-6.540049896,0.196840668,6.972787428
7.552675291,-2.092947693,-7.448660431,0.084424438,7.737577124
7.562688292,-2.033371582,-8.372239838,-0.492326202,8.629680468
7.572702291,-2.779420166,-9.266480255,-1.67786087,9.818760099
7.582715292,-4.441563721,-9.892777863,-3.541934509,11.40788509
7.592728292,-6.787036285,-10.17164795,-5.902226257,13.57801747
7.602742292,-9.20391037,-10.34917877,-8.482859802,16.24119385
7.612755292,-11.57512939,-10.81081879,-11.05002136,19.31218257
7.622768292,-13.5511702,-11.3455069,-12.68956192,21.75729124
7.632782292,-14.55902435,-11.30928223,-12.14679062,22.07735439
7.642795292,-14.06250687,-10.20128632,-9.189989319,19.65391171
7.652808291,-12.06042023,-8.96291153,-5.21859787,15.90664273
7.662822292,-9.157357178,-7.922125854,-1.793570251,12.24067657
7.672835292,-6.170468445,-7.243586884,0.618513794,9.535554052
7.682848291,-3.823349304,-6.801256714,1.958377533,8.044273451
7.692862292,-2.605930939,-6.09502533,2.070494385,6.944577512
7.702875291,-2.580184479,-5.259762268,1.500479736,6.047635116
7.712888292,-2.838247833,-4.432582397,1.240919495,5.407709188
7.722902291,-3.049608307,-3.526217194,1.146765289,4.800977937
7.732915292,-3.215313721,-2.661315765,1.008452911,4.293928411
7.742928292,-3.094514923,-1.93996582,0.876277771,3.755975602
7.752942292,-2.567760315,-1.350341949,0.842747498,3.021099098
7.762955292,-1.919458466,-0.88346283,0.852626953,2.278552192
7.772969292,-1.348994751,-0.533340912,0.812660065,1.662725397
7.782982292,-0.792452087,-0.132773895,0.746198273,1.096549625
7.792995292,-0.010627899,0.338595886,0.542022858,0.639178304
7.803009292,1.016685791,0.952169952,0.283809814,1.421557465
7.813022292,2.330054626,1.356928253,-0.09475296,2.698033908
7.823035291,4.051774292,1.858984222,-0.449515228,4.480486714
7.833049292,6.554569702,4.173770599,-0.23396347,7.774154867
7.843062291,9.323661346,7.087760925,-0.576301575,11.7260027
7.853075291,11.98931808,9.532776489,-1.682650909,15.40937668
7.863089291,15.96594864,11.23683289,-2.921025696,19.74108205
7.873102291,22.84953415,12.34243378,-4.038901062,26.28211567
7.883115292,31.26338745,13.02636154,-3.714076538,34.07168699
7.893129291,38.89272217,15.41868668,1.422491913,41.86171544
7.903142292,38.21044098,24.77617767,4.608616333,45.77265695
7.913155292,38.10580856,37.83651855,9.003327484,54.44919364
7.923169292,48.71005692,44.50604919,14.39496552,67.5327557
7.933182292,61.70318756,46.14199722,18.08464279,79.14178143
7.943195292,65.62368484,44.32492584,20.63399139,81.8347644
7.953209292,58.19014297,38.78823944,20.36544983,72.83798326
7.963222292,44.29438934,31.24841858,17.96998123,57.10846537
7.973235291,30.18068893,24.74085114,15.59022995,42.02426643
7.983249292,20.55720108,20.95327744,13.57302475,32.33984156
7.993262291,14.8570546,17.74544815,12.03676941,26.08671729
8.003275292,11.77331726,13.65385666,10.21191422,20.7200867
8.013289291,9.393565979,9.940678253,8.060138855,15.87520092
8.023302292,6.354286194,7.069798279,5.548062744,11.00636184
8.033315292,3.207529907,4.419559479,2.837948456,6.154242888
8.043329292,0.542621613,1.771116943,0.617915039,1.952719242
8.053342292,-0.947230225,-0.454305267,-0.46687912,1.14961493
8.063355292,-0.293539581,-1.813927917,-0.677042084,1.958286485
8.073369292,1.031355286,-2.688259735,-0.997825012,3.047308465
8.083382292,1.758094025,-3.927083588,-1.561552734,4.57726196
8.093395292,1.84641037,-5.249284058,-2.157164154,5.968045874
8.103409292,1.800156555,-6.440656586,-2.406545563,7.107325969
8.113422292,1.598675537,-7.329508209,-2.264041901,7.836028317
8.123435291,0.418529663,-8.165220337,-2.224823456,8.473241979
8.133449292,-1.850451965,-9.229207764,-3.052302704,9.895402984
8.143462291,-4.561763763,-10.42986099,-4.751419373,12.33562625
8.153475292,-7.658673706,-11.65970352,-6.641688538,15.45043675
8.163489291,-10.52626053,-12.47176483,-8.11687088,18.22719593
8.173502292,-11.40223892,-12.25621307,-8.476722565,18.76381189
8.183515292,-10.26849655,-11.2711116,-7.286697235,16.89899212
8.193529292,-8.195008392,-10.30891251,-4.998405762,14.08601788
8.203542292,-6.102060699,-9.799072723,-2.870131531,11.89515137
8.213555292,-4.526437225,-9.589508514,-1.296154633,10.6830391
8.223569292,-3.829486542,-9.375004578,-0.197289734,10.12889931
8.233582292,-3.880829773,-9.082063751,0.427510986,9.885721388
8.243595291,-4.070934448,-8.89270752,0.845292206,9.816683413
8.253609292,-4.376449127,-8.739725647,1.293609924,9.859489743
8.263622291,-4.422104187,-8.250991974,1.766925659,9.526589121
8.273635291,-3.90343277,-7.567662964,2.077529755,8.764841128
8.283649291,-3.044668579,-6.862629089,2.091750183,7.793657909
8.293662291,-1.489702148,-5.846242676,2.023791504,6.363450162
8.303676292,-0.072149963,-4.643194427,1.995500336,5.054352748
8.313689291,0.546214142,-3.728596344,1.884281616,4.213228904
8.323702292,0.535137177,-3.105891266,1.550475769,3.51239341
8.333716291,0.155825958,-2.765050049,0.975371704,2.936176674
8.343729292,-0.190853119,-2.566862183,0.244291992,2.585514447
8.353742292,-0.371377716,-2.269580383,-0.302071838,2.319518036
8.363756292,-0.049247589,-1.815424805,-0.615070953,1.9174214
8.373769292,0.899329834,-1.063089294,-0.556842041,1.499675317
8.383782292,2.021396484,-0.250129852,-0.243992615,2.051375413
8.393796292,3.161126404,0.425115967,0.1486409,3.19304523
8.403809417,4.778513031,1.524280243,0.705183563,5.065066723
8.413822417,7.230863342,3.197351074,1.551373901,8.056996931
8.423836417,10.11147308,5.44552597,2.519560547,11.75771348
8.433849417,13.45776443,8.418343964,3.287763062,16.21077804
8.443862417,17.45340546,12.05039108,3.848497009,21.55560754
8.453876417,22.37457184,16.10171631,4.017046509,27.85719648
8.463889417,28.01888443,19.73002121,4.170627136,34.52138109
8.473902416,34.62554581,23.3186586,5.69715271,42.13247928
8.483916417,41.08925446,28.01589066,8.866362305,50.51563462
8.493929416,48.2576976,33.95299438,13.30133972,60.48584003
8.503942417,59.01238312,39.63233414,19.22886337,73.64056258
8.513956416,67.82231277,41.9101474,24.8673381,83.51473564
8.523969417,66.67075745,38.79826859,26.88020233,81.68745816
8.533982417,56.52814911,32.80937256,24.10212936,69.66203564
8.543996416,41.81958572,27.6609787,19.22242676,53.69831639
8.554009417,28.66808441,23.3743428,14.01146301,39.55426729
8.564022417,20.4919368,19.33918396,9.724078674,29.80740203
8.574036417,15.97777405,15.80039291,7.165149994,23.58561117
8.584049417,13.07081909,12.99163376,5.357658691,19.19201308
8.594062417,10.66292633,10.29933243,3.244053955,15.17557684
8.604076417,7.970026245,7.050039368,0.478255463,10.6514366
8.614089417,5.339696045,2.969973907,-2.610870667,6.64452741
8.624102416,3.664379883,-1.406774597,-5.025948486,6.377056757
8.634116417,0.290096741,-6.013894043,-7.649093628,9.734459975
8.644129416,-6.550677795,-10.20323227,-11.34969818,16.60822017
8.654142417,-12.56891281,-11.96851135,-14.91902573,22.88668088
8.664156416,-14.42475357,-10.80842377,-15.78946564,23.96252835
8.674169417,-13.03564224,-9.464069366,-14.36787186,21.58546546
8.684182417,-9.861193542,-9.206904144,-11.31931137,17.61070788
8.694196417,-6.609355774,-9.591604156,-7.563321991,13.888351
8.704209417,-3.996389465,-9.799671478,-4.499942322,11.50018134
8.714222417,-2.576142883,-9.517657928,-1.948498077,10.05081934
8.724236417,-2.233056335,-8.984616394,-0.183069305,9.259772498
8.734249417,-2.757715302,-8.394842834,0.554147644,8.85355632
8.744262416,-3.505709839,-7.839946747,0.618214417,8.610281966
8.754276417,-4.218677216,-7.2685849,0.618813171,8.426891102
8.764289416,-4.444108429,-6.392007751,1.153052216,7.870031273
8.774302416,-3.713627472,-5.206622772,2.559228058,6.888366856
8.784316417,-2.23605011,-4.245920563,4.295766907,6.440603608
8.794329416,-0.367635498,-3.527265015,5.90312439,6.886481823
8.804343417,1.629361725,-2.883154449,7.124135284,7.856252463
8.814356416,3.278931427,-2.300116882,7.889793091,8.848206823
8.824369417,4.251608734,-1.732796631,7.960446167,9.189530139
8.834383416,4.624932404,-1.248703308,7.501201172,8.900408907
8.844396417,4.688849487,-0.984802094,6.868317261,8.374301563
8.854409417,4.485422516,-0.767154694,6.349496155,7.81176311
8.864423417,3.801794128,-0.500708771,5.972430267,7.097483439
8.874436417,2.594853973,-0.251027985,5.578449554,6.157546721
8.884449417,1.491797791,-0.095351715,5.142256622,5.355124253
8.894463417,0.845142517,0.01287323,4.617747345,4.694467183
8.904476417,0.349972229,-0.007334747,3.923940125,3.939522872
8.914489416,0.138911133,0.124690704,3.248993683,3.254351552
8.924503417,0.567619629,0.524658966,2.836900635,2.940317038
8.934516416,1.781445465,1.125958557,2.90066803,3.585415685
8.944529417,3.406017151,2.001038818,3.361110535,5.186730493
8.954543416,5.065765686,3.062032471,3.771856384,7.018897735
8.964556416,6.682852936,3.985911255,3.656296692,8.59747157
8.974569417,8.301437073,4.64409256,3.00829422,9.976536839
8.984583416,9.93633728,5.462440796,1.848655701,11.4885415
8.994596417,11.93842392,6.621630249,0.751138,13.67245995
9.004609417,14.43792618,8.281977539,0.142204285,16.64527219
9.014623417,16.64523605,9.98079483,0.011975098,19.4082532
9.024636417,18.13329163,11.36661301,0.865799561,21.41881802
9.034649417,19.38079742,13.01812866,2.786156158,23.51275502
9.044663417,20.71033264,15.44323563,5.482948151,26.40973542
9.054676417,23.53675507,18.67441635,8.969797211,31.35554061
9.064689416,27.8546759,21.75036987,13.24670334,37.74171046
9.074703417,31.73415848,24.20451645,17.91983551,43.74969641
9.084716416,34.0722963,25.80873047,22.2238353,48.1758321
9.094729417,35.6130423,26.34132294,25.71577377,51.2196749
9.104743416,36.8406395,26.32306091,27.7087294,53.08398948
9.114756417,36.94527191,25.78088837,27.63223846,52.85024053
9.124769417,35.32728653,24.59430588,25.87698853,50.22465122
9.134783417,31.94282455,22.67604492,21.94870743,44.90314924
9.144796417,27.038573,19.69978409,17.0892128,37.56603675
9.154809417,21.36342453,16.41726013,12.73641449,29.80165418
9.164823417,15.92044327,13.22784256,9.002129974,22.57154573
9.174836417,11.3905632,10.34543655,5.743107147,16.4242585
9.184849416,7.776778107,7.485483856,3.240461426,11.26993064
9.194863417,5.067112885,4.584516449,1.460961914,6.987691591
9.204876417,2.756817169,1.800904999,0.286953278,3.305395877
9.214889416,0.967587891,-0.556392975,-0.520467682,1.231538094
9.224903417,0.007634125,-2.372117157,-1.284329224,2.697498775
9.234916416,-0.821042633,-3.928879852,-1.704355774,4.360623408
9.244930417,-1.472188568,-5.005890198,-2.081421661,5.617703444
9.254943416,-1.611099701,-5.639971619,-2.373464355,6.327578933
9.264956417,-1.285676422,-6.009403381,-2.370171204,6.586623141
9.274970416,-1.039887543,-6.375541992,-2.18335968,6.818794709
9.284983417,-1.150058441,-6.842870178,-2.194736023,7.277662599
9.294996417,-1.65570694,-7.230114899,-2.509082336,7.830160987
9.305010417,-2.179767151,-7.344327393,-3.05035675,8.245920566
9.315023417,-3.000360718,-7.300468597,-3.855831757,8.784443335
9.325036417,-4.000131683,-7.319329376,-4.944368134,9.696412339
9.335050417,-5.057532806,-7.269033966,-5.868995361,10.62368107
9.345063417,-5.985303497,-7.045399017,-6.343658295,11.21175748
9.355076416,-6.464906158,-6.743027802,-6.148613892,11.18342024
9.365090417,-6.515650635,-6.402785339,-5.164560242,10.49390517
9.375103416,-6.266718292,-6.220614166,-3.530707855,9.509663334
9.385116416,-5.632038116,-6.211333466,-1.820963287,8.580001402
9.395130416,-4.806504822,-6.234385529,-0.420325928,7.883319441
9.405143292,-4.0742276,-6.152206421,0.629291382,7.405739803
9.415156292,-3.465443573,-5.930667114,1.341210938,6.99863975
9.425170292,-3.036136322,-5.597460022,1.715133362,6.594798322
9.435183292,-2.682421875,-5.173092499,1.748663635,6.083921238
9.445196291,-2.385289764,-4.664300537,1.491049347,5.446883046
9.455210292,-2.16464859,-4.215084686,1.093027039,4.862854156
9.465223291,-2.055076447,-3.874692535,0.61072998,4.428269702
9.475236292,-1.956880646,-3.560645599,0.075742493,4.063657942
9.485250291,-1.829046478,-3.281775513,-0.343834991,3.772755497
9.495263292,-1.592687988,-3.102448425,-0.570763092,3.533781511
9.505276292,-1.226399689,-3.009641418,-0.585282898,3.302204375
9.515290292,-0.639170837,-2.822530518,-0.277522888,2.907273093
9.525303292,0.393831024,-2.292482758,0.241447906,2.338563055
9.535316292,2.076931,-1.437909851,0.830023956,2.658978542
9.545330292,4.211941223,-0.218395844,1.395697632,4.44253503
9.555343292,6.502328339,1.533411255,1.593286743,6.868055514
9.565357292,9.474846954,4.333488464,1.879940643,10.58706871
9.575370292,12.75123367,8.415499878,3.163521423,15.60200199
9.585383292,15.22573792,13.40687027,5.821993103,21.10599131
9.595397292,17.32856506,18.2690593,9.324559479,26.85116579
9.605410292,20.7109314,21.78704361,12.73746231,32.64752509
9.615423291,25.0718129,23.79122589,16.20889343,38.17520737
9.625437292,29.37970459,24.81539612,19.7247821,43.22080466
9.635450291,33.17401428,25.1951564,22.01711517,47.11756032
9.645463292,35.58924179,25.51968155,23.73239822,49.81039051
9.655477291,35.6368428,25.49423447,26.32006714,51.11444503
9.665490292,33.91212936,24.48772751,29.81544846,51.36771635
9.675503292,31.16743698,22.08986389,34.05313614,51.1760422
9.685517292,28.55102783,18.29211136,36.78839813,50.03147775
9.695530292,26.04179581,14.44795532,35.721866,46.507744
9.705543292,22.76031967,11.72706345,32.31854324,41.23159475
9.715557292,18.27384933,10.11506561,28.10495544,35.01623398
9.725570292,13.76986542,9.034313049,23.60606094,28.78322635
9.735583291,10.57520874,7.770790558,19.27257248,23.31635211
9.745597292,8.333620148,6.397695923,15.49188446,18.71839261
9.755610291,6.613097992,5.243745575,12.19933136,14.83420434
9.765623291,5.477259979,4.091591492,9.333840179,11.56987771
9.775637291,4.441563721,2.450554047,6.21193222,8.02002527
9.785650291,1.257684631,0.547261963,2.982098694,3.28240444
9.795663292,-0.682879944,-0.622705078,2.835403748,2.982214118
9.805677291,-1.790127411,-1.401086426,1.945055237,2.991795313
9.815690292,-2.369572449,-2.698887634,0.851429443,3.691043233
9.825703292,-2.67478775,-3.989054718,0.391585693,4.818753616
9.835717292,-2.991379395,-4.606820068,-0.022153931,5.492871073
9.845730292,-3.069965973,-5.031187592,-0.271984406,5.900128403
9.855743292,-2.427501984,-5.508993988,-0.617166595,6.051667146
9.865757292,-2.457439728,-5.871390381,-1.228345642,6.482365929
9.875770292,-4.137845306,-5.944288788,-1.842518463,7.473366528
9.885783291,-5.853577423,-5.827980652,-2.432441711,8.610836185
9.895797292,-7.111411743,-5.833369446,-2.801873474,9.615137598
9.905810291,-8.014184418,-6.111940155,-3.042572937,10.52806793
9.915824292,-8.465495911,-6.251300354,-2.971321106,10.93490403
9.925837291,-8.675808563,-6.168821869,-2.631976776,10.96591625
9.935850292,-8.72999588,-6.025270386,-2.205363922,10.83422084
9.945864291,-8.289461975,-6.062991943,-1.589993591,10.39245547
9.955877292,-7.630232849,-6.164331207,-0.939745789,9.854062853
9.965890292,-7.354506226,-6.273154907,-0.261057129,9.670025085
9.975904291,-7.234904938,-6.321204987,0.336200867,9.613246744
9.985917292,-7.119644623,-6.249354401,0.854423218,9.511772128
9.995930292,-6.924300842,-5.979465637,0.894090729,9.192352783
10.00594429,-6.323600006,-5.496569824,0.258362732,8.382538289
10.01595729,-5.180576935,-4.693040771,-0.784817963,7.034127401
10.02597029,-3.6097435,-3.830684052,-1.443598022,5.457871718
10.03598429,-2.125430145,-3.474873962,-1.568139038,4.364775183
10.04599729,-2.246079254,-3.251089325,-1.291514282,4.157218175
10.05601029,-2.113455048,-2.837050323,-0.775387573,3.621708528
10.06602429,-1.090332642,-2.733016663,-0.835861816,3.058900182
10.07603729,0.396375732,-3.394790497,-1.600022736,3.773829486
10.08605029,1.497635651,-4.207151184,-2.242935791,4.997378772
10.09606429,1.281634827,-4.303850098,-2.400408325,5.091922389
10.10607729,0.099692688,-3.431763611,-2.583777008,4.296841135
10.11609029,1.640588379,-2.221530304,-2.908751221,4.010930164
10.12610429,4.542603607,-1.679507446,-4.010909271,6.288353201
10.13611729,7.286547546,-1.649719391,-4.996908875,8.988016884
10.14613029,8.82010849,-0.955762482,-4.63585968,10.00994459
10.15614429,9.394913177,0.394429779,-3.089126129,9.897609242
10.16615729,10.16521133,2.109413452,-0.855920105,10.41699313
10.17617029,13.43022171,4.134552155,1.948498077,14.18668465
10.18618429,20.01742355,6.69871994,5.557642822,21.82790618
10.19619729,28.18698486,10.59706329,8.79675705,31.37175164
10.20621129,36.2567038,14.87726257,11.22575592,40.7663968
10.21622429,45.20090424,18.54553436,14.46531921,50.95394046
10.22623729,55.14727066,21.78524734,20.19001465,62.63749001
10.23625129,62.99485153,24.73890518,27.13123032,72.91411666
10.24626429,65.35289795,26.20869873,31.08510818,76.96870215
10.25627729,61.8367099,25.4048703,29.45963837,73.05516011
10.26629129,54.53040344,23.31895798,25.01747589,64.36779319
10.27630429,44.68358002,20.7944577,19.86264542,53.13714781
10.28631729,35.03689041,17.68796768,15.06691818,42.04116927
10.29633129,27.590625,15.40970535,11.53112091,33.64027878
10.30634429,22.95985474,13.71328308,9.998607788,28.5513786
10.31635729,20.05873764,12.28420486,8.99674118,25.18324834
10.32637129,17.18621109,10.86874832,8.459807739,22.02416602
10.33638429,13.88737106,9.452543335,8.44917984,18.80420938
10.34639729,10.33585648,7.229665833,8.040978699,14.95845365
10.35641129,6.51624939,4.40189621,6.882537689,10.45024026
10.36642429,3.12415329,1.898352356,5.661826172,6.739462222
10.37643729,0.375269623,-0.308807831,4.958289185,4.9820499
10.38645129,-1.598974915,-2.44426712,3.723057861,4.732052659
10.39646429,-3.118764496,-4.606520691,1.579964447,5.782993387
10.40647779,-4.293671265,-6.307583313,-0.914149017,7.684847988
10.41649179,-5.026098175,-7.519463196,-3.462000732,9.684494757
10.42650479,-5.371729431,-8.211474152,-5.683381348,11.33951535
10.43651779,-5.400469666,-8.32164505,-7.080126801,12.18782361
10.44653179,-5.534441071,-7.911947021,-7.497758331,12.22478317
10.45654479,-5.984555054,-7.368427277,-7.108118591,11.85891941
10.46655779,-6.340365143,-6.844516754,-6.379433899,11.30242525
10.47657179,-6.447242889,-6.4776297,-5.645210724,10.74220794
10.48658479,-6.772965546,-6.300248566,-4.955594788,10.49400372
10.49659779,-7.187004547,-6.201154633,-4.284091187,10.41445104
10.50661179,-7.425907745,-5.968388672,-3.688479767,10.21619558
10.51662479,-7.501051483,-5.807473297,-3.167563019,10.00129866
10.52663879,-7.381150818,-5.760770416,-2.8187883,9.778212038
10.53665179,-7.037465515,-5.679788818,-2.233056335,9.315173777
10.54666479,-6.43901001,-5.399421844,-1.348994751,8.510839735
10.55667879,-5.591322784,-5.055736542,-0.338745575,7.545734625
10.56669179,-4.607418823,-4.833897858,0.563877411,6.701703846
10.57670479,-3.643722839,-4.691094818,1.315015411,6.083777795
10.58671879,-2.893333282,-4.39366333,1.785936127,5.555647828
10.59673179,-2.305954742,-3.962410126,1.899998932,4.962672387
10.60674479,-1.884580994,-3.522624664,1.646426239,4.321024116
10.61675879,-1.54568573,-3.028651886,1.175804901,3.597831818
10.62677179,-1.329385529,-2.74499176,0.447868652,3.082666375
10.63678479,-1.079105988,-2.694247284,-0.520767059,2.9486669
10.64679879,-0.377215576,-2.597847748,-1.179996185,2.878106237
10.65681179,0.710422668,-2.172582092,-1.20170105,2.582421098
10.66682479,1.880988464,-1.594035187,-0.812959442,2.596144995
10.67683879,2.998115387,-1.132544861,-0.589474182,3.258655175
10.68685179,4.547543335,-0.575403442,-0.425415344,4.603500594
10.69686479,6.503825226,0.239951019,-0.352367249,6.517781965
10.70687879,8.461604004,1.300944672,-0.591569824,8.581442432
10.71689179,10.45261368,2.18216217,-1.199904785,10.74517268
10.72690479,12.74270142,2.611768799,-1.707948303,13.11925543
10.73691879,15.4356015,2.906954956,-1.455423431,15.77423336
10.74693179,18.55346786,3.29030777,-0.35102005,18.84623331
10.75694479,21.99376373,3.961362305,1.14197525,22.37682153
10.76695879,25.39020081,5.275629272,3.311862946,26.14312524
10.77697179,29.31967941,7.224277039,5.968987427,30.78088027
10.78698479,34.50205261,9.398356018,8.351133728,36.72141289
10.79699879,40.49648712,11.65506317,10.18272491,43.35312968
10.80701179,45.82899811,13.61718292,11.18833374,49.10095264
10.81702479,49.19744339,14.75766129,11.24207199,52.57909457
10.82703879,49.83721298,15.04102203,10.9513765,53.19692462
10.83705179,48.06310226,14.83085907,10.81935104,51.44972825
10.84706579,45.00585983,13.91491379,10.64032333,48.29460348
10.85707879,41.50523941,12.9604985,10.09366013,44.63789192
10.86709179,37.25123566,12.4695195,9.038803711,40.30934689
10.87710579,32.48948776,11.86552551,8.187523956,35.54424087
10.88711879,27.8308754,10.84360062,8.403375092,31.02834209
10.89713179,24.04869049,9.816885681,9.135352936,27.53480401
10.90714579,20.79326019,8.672066345,8.995094604,24.25852698
10.91715879,17.53528519,7.382797394,7.912994843,20.60600425
10.92717179,14.38927734,5.820945282,6.467001801,16.81537448
10.93718579,11.47798141,4.223317566,4.774471436,13.12920584
10.94719879,8.753047943,2.650837555,3.180136871,9.682771223
10.95721179,6.15235611,1.188678131,1.168021088,6.374065787
10.96722579,4.076921997,-0.459244995,-0.642314301,4.152681856
10.97723879,2.271975403,-1.839375,-1.336570587,3.214279633
10.98725179,0.615819397,-2.9368927,-1.16427887,3.218713648
10.99726579,-0.550555115,-3.77350296,-0.782572632,3.892923766
11.00727879,-1.354383545,-4.531077576,-0.409099274,4.74682852
11.01729179,-1.917063446,-5.453010406,-0.165256348,5.782539616
11.02730579,-2.714455261,-6.195466461,-0.113014984,6.764971872
11.03731879,-3.673810272,-6.295159149,-0.141306152,7.290121951
11.04733179,-4.383035431,-6.50337616,-0.640218658,7.868594601
11.05734579,-5.014572144,-6.5864534,-1.509161682,8.41456304
11.06735879,-5.833668823,-6.30204483,-2.567311249,8.96317734
11.07737179,-6.626569977,-5.875431976,-3.686234436,9.592729272
11.08738579,-7.263196106,-5.454507294,-4.50248703,10.13795132
11.09739879,-7.849975891,-5.123246155,-5.191803589,10.71562397
11.10741179,-8.281678162,-4.813091125,-5.629792786,11.11065282
11.11742579,-8.472531281,-4.366419983,-5.187312927,10.85161855
11.12743879,-8.559500427,-4.134252777,-4.111051025,10.35653582
11.13745179,-8.500074005,-4.374203796,-2.890189819,9.986897123
11.14746579,-8.280031586,-4.714446259,-1.91421936,9.718495889
11.15747879,-7.999065857,-5.052593079,-1.267564087,9.545704276
11.16749279,-7.669301605,-5.275479584,-0.814905396,9.344139487
11.17750579,-7.245981903,-5.236859894,-0.535137177,8.956300971
11.18751879,-6.586902466,-5.05124588,-0.284857635,8.305631397
11.19753279,-5.832770691,-4.694986725,-0.188308411,7.489964909
11.20754579,-5.299579468,-4.330794067,-0.351169739,6.85307522
11.21755879,-4.788542175,-4.060306549,-0.717607727,6.319112777
11.22757279,-4.064348145,-3.775299225,-0.853225708,5.612468636
11.23758579,-3.37802536,-3.322041779,-0.857267303,4.814761068
11.24759879,-2.695444794,-2.932551727,-0.911304932,4.086044413
11.25761279,-1.969604187,-2.768193512,-1.224902802,3.611457164
11.26762579,-1.208437042,-2.806962891,-1.366807709,3.34776404
11.27763879,-0.446521454,-2.717748413,-1.189875641,3.000223639
11.28765279,0.420325928,-2.491718445,-1.268162842,2.82729052
11.29766579,1.567689972,-2.178120575,-1.507215729,3.077914934
11.30767879,3.100652161,-1.530716858,-1.949545898,3.969618008
11.31769279,5.120701447,-1.057251434,-2.777324524,5.920548573
11.32770579,7.92496994,-0.757724304,-3.193459167,8.577731409
11.33771879,11.77182037,0.107326813,-2.322719879,11.99926254
11.34773279,17.27213242,1.143322449,-0.668509827,17.32283608
11.35774579,24.502397,1.843117218,1.886976013,24.64396921
11.36775879,31.9847374,3.083587646,4.428989868,32.43682923
11.37777279,38.62927002,5.423521729,6.265969849,39.50819495
11.38778579,48.43986877,8.428522797,10.77728851,50.33498615
11.39779879,62.60131989,11.19985977,20.99519028,66.97133809
11.40781254,73.65942444,16.15425705,34.8352597,83.06723872
11.41782554,77.20495148,21.81069443,42.13168671,90.61672003
11.42783854,71.94249481,22.87647812,38.37854141,84.687474
11.43785254,59.73418213,20.10109955,31.06609772,70.26613085
11.44786554,45.37648911,17.03068451,23.44304993,53.83908031
11.45787954,34.77538422,14.36053711,17.41912674,41.46056379
11.46789254,29.36443634,12.92592041,13.80609009,34.92789234
11.47790554,25.57042603,12.17702774,11.91372528,30.72561703
11.48791954,21.77806229,10.74705139,9.89307724,26.22319751
11.49793254,17.6996434,8.56039856,7.561675415,21.06505958
11.50794554,13.48141525,6.376589813,4.917124786,15.70310705
11.51795954,9.272318115,4.028871918,2.765050049,10.48108744
11.52797254,5.273383942,1.803749084,0.160615997,5.575651213
11.53798554,2.043550415,-0.042212219,-2.070045319,2.909118044
11.54799954,-0.551453247,-1.427132263,-3.065475311,3.426068602
11.55801254,-2.332898712,-2.62329483,-2.91818161,4.565071311
11.56802554,-3.262914734,-3.70449646,-1.869911499,5.278870674
11.57803954,-3.489393768,-4.710554352,-0.267044678,5.868262437
11.58805254,-3.395688629,-5.860612793,0.598605194,6.799692034
11.59806554,-3.373534698,-6.905290375,1.03315155,7.754429292
11.60807954,-3.896547089,-7.609725494,0.987795868,8.606203692
11.61809254,-4.89092926,-7.68741394,0.097746735,9.111919476
11.62810554,-5.966891785,-7.581434326,-1.259630585,9.729779711
11.63811954,-7.113357697,-7.571704559,-2.495610352,10.68450461
11.64813254,-8.264463959,-7.662715302,-3.464844818,11.79083203
11.65814554,-10.04411316,-8.104746094,-4.722828827,13.7432249
11.66815954,-12.21968903,-9.217082977,-6.367907867,16.57786684
11.67817254,-14.4960054,-10.44617706,-7.794890442,19.49402741
11.68818554,-15.97403183,-11.13369736,-7.926017761,21.02262275
11.69819954,-16.31053207,-11.33113678,-6.3780867,20.85924513
11.70821254,-15.64741104,-11.17546051,-4.120032349,19.66486858
11.71822554,-13.90353745,-10.6939119,-1.753303986,17.62788076
11.72823954,-11.47319138,-9.874216461,0.235310669,15.13901061
11.73825254,-9.090745697,-8.802295532,1.55152359,12.74869756
11.74826654,-6.982978821,-7.676636353,1.924248505,10.5544053
11.75827954,-5.375621338,-6.651867371,1.497635651,8.68260081
11.76829254,-4.214485931,-5.736371155,0.62135788,7.145203378
11.77830654,-3.371588745,-4.912634125,-0.25970993,5.963978031
11.78831954,-2.743195496,-4.280798035,-1.18059494,5.219593639
11.79833254,-2.179617462,-3.809128876,-2.067201233,4.851135538
11.80834654,-1.504371643,-3.467389526,-2.694396973,4.641734505
11.81835954,-0.294288025,-3.078198853,-2.911295929,4.247064587
11.82837254,1.265468445,-2.626587982,-3.026107178,4.202106551
11.83838654,2.420167236,-2.137105865,-3.254532166,4.584365883
11.84839954,3.247646484,-1.352287903,-3.526965637,4.981503474
11.85841254,3.825444946,-0.608784027,-4.109703827,5.647504987
11.86842654,4.914131012,-0.486188965,-4.830904083,6.908161664
11.87843954,6.37224884,-0.660726013,-5.169649658,8.232095222
11.88845254,8.121810608,-0.801134033,-4.792583771,9.464379667
11.89846654,10.94583801,-0.709973602,-2.792592773,11.31874581
11.90847954,14.49540665,0.626447296,0.554147644,14.51951548
11.91849254,18.83143982,3.279530182,4.119283905,19.55369387
11.92850654,24.24717773,5.179529114,6.732549591,25.69202938
11.93851954,30.61134338,6.674919434,8.366701355,32.42854583
11.94853254,36.09159714,8.654852142,9.564211121,38.32732686
11.95854654,42.45785843,11.2473111,12.07898163,45.55297517
11.96855954,50.39001343,13.81671799,15.05853561,54.37660015
11.97857254,58.23744461,15.70159836,18.22744583,63.01095085
11.98858654,64.14595779,16.97035995,21.30968628,69.69074363
11.99859954,66.16196548,17.89094559,22.74999115,72.21532876
12.00861254,62.96641068,17.88301208,21.9410733,69.03608978
12.01862654,55.8301506,16.36427032,19.15806061,61.25215381
12.02863954,47.18592636,14.51022583,15.8231456,51.84043052
12.03865254,38.38737305,13.00286041,12.81215698,42.50666012
12.04866654,31.67428299,11.62901733,11.25075394,35.56787471
12.05867954,26.11379608,10.36639297,10.32013916,29.9315506
12.06869354,20.7532933,8.798703003,8.793912964,24.19605883
12.07870654,15.68198914,6.810687103,6.782246246,18.39318097
12.08871954,10.85737198,4.653972015,4.224964142,12.54560895
12.09873354,6.528224487,2.513423309,1.511856079,7.15686527
12.10874654,3.143014069,0.742006989,-0.538729706,3.274040547
12.11875954,0.453257446,-0.67045578,-1.628463593,1.818473794
12.12877354,-1.723216553,-2.187700653,-2.069296875,3.469509907
12.13878654,-3.304228821,-3.727698212,-2.073039093,5.395475247
12.14879954,-3.888763275,-4.697082367,-1.497785339,6.279205642
12.15881354,-3.374432831,-5.225932617,-0.205821991,6.224108879
12.16882654,-2.116897888,-5.737119598,1.096918945,6.212811693
12.17883954,-1.010548553,-6.181395721,1.748813324,6.503015415
12.18885354,-0.680035858,-6.467001801,1.822759552,6.753296487
12.19886654,-1.487756195,-6.535858612,1.105900269,6.793664821
12.20887954,-2.951412506,-6.404731293,-0.641416168,7.081160457
12.21889354,-4.311334534,-6.203250275,-2.625540161,7.997585921
12.22890654,-5.703739014,-6.221811676,-4.579876099,9.603064321
12.23891954,-6.763834534,-6.318211212,-6.197113037,11.13882671
12.24893354,-7.610473938,-6.313570862,-7.483687592,12.40105119
12.25894654,-8.800648956,-6.468049622,-8.670868835,13.94528789
12.26895954,-9.813592529,-6.956783295,-9.107361145,15.08799056
12.27897354,-10.29544052,-7.602241058,-7.751630402,14.9625512
12.28898654,-10.29588959,-8.157436523,-5.331912231,14.17668512
12.29899954,-9.627828827,-8.465944977,-2.836900635,13.13070133
12.30901354,-8.568631439,-8.540340271,-0.555045776,12.11061239
12.31902654,-7.76240799,-8.204738159,1.131047974,11.35129841
12.32904054,-7.121590576,-7.62664032,1.795965271,10.58811533
12.33905354,-6.62731842,-7.032675476,1.350341949,9.757217697
12.34906654,-6.446344757,-6.29036911,0.40835083,9.016144113
12.35908054,-6.16403183,-5.504653015,-0.558488617,8.283018939
12.36909354,-5.491779785,-4.789739685,-1.319206696,7.405508609
12.37910654,-4.698878632,-4.160298615,-1.731299744,6.510372014
12.38912054,-3.866609344,-3.61438385,-1.773212585,5.581999759
12.39913354,-2.691552887,-3.038531342,-1.554966431,4.346843712
12.40914633,-1.382824402,-2.340383148,-1.27070755,3.000715629
12.41916033,-0.004191284,-1.610800323,-1.070124664,1.933872293
12.42917333,1.345851288,-0.856668549,-0.933608551,1.848464665
12.43918633,2.316283264,0.057630157,-1.009051666,2.527187104
12.44920033,3.377725983,0.996777191,-1.286873932,3.749485578
12.45921333,4.788093109,1.911075897,-1.530866547,5.377880539
12.46922633,6.248755646,3.363056488,-1.423090668,7.237560577
12.47924033,7.732170868,4.940925293,-1.151705017,9.248007003
12.48925333,10.26565247,6.182293854,-0.377814331,11.98945877
12.49926633,14.69329514,7.125632172,1.493144989,16.39808031
12.50928033,20.22204803,8.172405396,3.481160889,22.08705317
12.51929333,25.47043396,9.522597656,5.498815155,27.74274392
12.52930633,29.95959869,11.60731247,7.799530792,33.06266682
12.53932033,36.02962601,14.72742416,10.48210236,40.31011588
12.54933333,48.02568008,18.57322678,15.27678177,53.71043438
12.55934633,63.32431641,22.66541702,21.34291718,70.56351955
12.56936033,71.91525146,25.45995575,24.01785461,79.98043561
12.57937333,71.49717087,25.94419876,22.54282196,79.32922358
12.58938633,65.54270325,23.71293869,18.63010849,72.14728236
12.59940033,55.91831726,20.44313828,14.57084976,61.29510397
12.60941333,44.03872101,17.427659,10.82204544,48.58239304
12.61942633,32.47466858,14.03541321,7.411537628,36.14592388
12.62944033,23.72775787,10.94928085,5.99203949,26.81040436
12.63945333,17.5059462,8.748257904,5.784720612,20.40718406
12.64946633,12.85421951,7.225923615,5.445076904,15.71921734
12.65948033,9.34895874,5.873036957,4.765490112,12.02520223
12.66949333,6.475683746,4.378544769,3.799099731,8.691334365
12.67950733,3.864064636,2.840493164,2.538271637,5.426068543
12.68952033,1.444795532,1.440753937,0.955612793,2.253087181
12.69953333,-0.724792786,0.226029968,-1.199755096,1.419798021
12.70954733,-2.381846924,-1.053958282,-3.450923767,4.323528383
12.71956033,-3.198548584,-2.317630463,-4.824168091,6.234959645
12.72957333,-3.127147064,-3.411705322,-4.933740234,6.764656286
12.73958733,-2.235451355,-3.977229309,-3.952380981,6.036299459
12.74960033,-1.031055908,-4.176914063,-2.458188171,4.955035465
12.75961333,0.142952728,-4.205055542,-0.977617035,4.319567416
12.76962733,0.7617659,-4.240531769,0.131875763,4.310427842
12.77964033,0.567619629,-4.186793518,0.827030182,4.305277102
12.78965333,-0.14624588,-4.035009155,1.0975177,4.184164414
12.79966733,-1.457219696,-3.696712646,0.583037567,4.01610588
12.80968033,-2.918031921,-3.225043488,-0.411194916,4.368626449
12.81969333,-4.296365662,-2.999911652,-1.102906494,5.354869798
12.82970733,-5.616620178,-3.270698547,-1.868414612,6.762755679
12.83972033,-6.499334564,-3.681743774,-2.51447113,7.881570406
12.84973333,-7.277715912,-4.142635345,-2.998115387,8.894676631
12.85974733,-7.902067566,-4.644242249,-3.31365921,9.746383701
12.86976033,-8.334967346,-4.861290894,-3.310066681,10.20099854
12.87977333,-8.846603394,-5.237758026,-3.195105743,10.7659278
12.88978733,-9.180409241,-5.823789368,-3.129392395,11.31324592
12.89980033,-9.260941772,-6.231990509,-3.11247757,11.58836765
12.90981333,-8.968300323,-6.344107361,-2.784060516,11.33265643
12.91982733,-8.315358124,-6.340065765,-2.313588867,10.70954285
12.92984033,-7.619305573,-6.260730743,-1.788031769,10.02235623
12.93985333,-6.772217102,-5.921985168,-1.061143341,9.058634445
12.94986733,-5.862558746,-5.503605194,-0.436342621,8.052928664
12.95988033,-4.842579803,-5.135221252,0.006286926,7.058407468
12.96989433,-3.539838867,-4.691693573,0.457598419,5.895069474
12.97990733,-1.707050171,-4.022884369,1.216819611,4.536327688
12.98992033,0.016615448,-2.96727951,2.15177536,3.665400519
12.99993433,1.497935028,-1.569635925,2.66894989,3.439601692
13.00994733,2.978356476,0.222587128,2.288291473,3.762503182
13.01996033,4.488565979,1.708397369,0.910706177,4.888274937
13.02997433,6.905440063,2.676134949,-0.161963196,7.407633415
13.03998733,10.01402573,4.19128418,0.111368408,10.85633351
13.05000033,12.01147202,6.360872498,1.266815643,13.65067693
13.06001433,12.90316772,7.792495422,2.731968842,15.31921591
13.07002733,14.11834076,8.095764771,4.346661072,16.84524905
13.08004033,15.12844025,7.83021698,5.461243286,17.88874452
13.09005433,16.77127396,7.760312347,6.641987915,19.63705888
13.10006733,19.50219498,8.660091248,9.194929047,23.23530739
13.11008033,22.82199142,11.1118428,13.80025223,28.89227067
13.12009433,27.25592102,15.28785873,19.19308777,36.67394816
13.13010733,33.75570465,19.84722748,24.5874202,46.23744443
13.14012033,41.94547394,23.796465,29.67054977,56.62186904
13.15013433,51.41283646,27.56398041,33.8121373,67.42635536
13.16014733,57.95902359,31.14139114,35.14466629,74.59344627
13.17016033,58.58232742,32.62360886,32.85173447,74.66877124
13.18017433,53.67223801,30.66298599,27.66921158,67.72380019
13.19018733,44.33899658,26.617798,21.42943726,55.97923338
13.20020033,34.82687714,22.12623825,17.04834778,44.64446161
13.21021433,26.8037114,18.04662186,14.30081131,35.33599736
13.22022733,20.1534906,13.94155838,11.5962355,27.11093712
13.23024033,14.41083252,10.03318588,8.646319885,19.5728322
13.24025433,9.666897583,6.57702301,5.521268463,12.93021833
13.25026733,5.304668884,3.468437347,2.381996613,6.770781156
13.26028133,1.46260849,0.901126099,-0.143850861,1.723932977
13.27029433,-2.175875244,-1.413809967,-2.232158203,3.422838288
13.28030733,-5.070106659,-3.356021118,-4.010160828,7.283560197
13.29032133,-6.562802582,-4.918921051,-4.911137238,9.559572741
13.30033433,-6.840175781,-6.014343109,-4.895719299,10.34061871
13.31034733,-6.207740936,-6.856342163,-4.058061218,10.10016516
13.32036133,-5.250930634,-7.647147675,-2.808908844,9.692322166
13.33037433,-4.354145508,-8.325836334,-1.696721649,9.547617406
13.34038733,-3.680995331,-8.878936157,-1.21098175,9.68770926
13.35040133,-3.299139404,-9.188193054,-1.385967865,9.860432005
13.36041433,-3.40841217,-9.244476013,-2.207459564,10.09705343
13.37042733,-4.019142151,-8.997040558,-3.440295868,10.43723517
13.38044133,-5.286257172,-8.351882172,-4.715793457,10.95158247
13.39045433,-6.735842743,-7.87587204,-5.834866333,11.8931326
13.40046733,-8.191864929,-7.651039581,-6.986271973,13.20806775
13.41048183,-9.351653137,-7.368427277,-7.531138916,14.0877674
13.42049483,-9.736353149,-6.862629089,-6.849606171,13.74079166
13.43050783,-9.22381897,-6.574478302,-5.107977905,12.42553981
13.44052183,-8.158334656,-6.346203003,-3.026256866,10.76990936
13.45053483,-6.997348938,-5.949228516,-1.328786774,9.280187842
13.46054783,-5.758674774,-5.45959671,0.095052338,7.935903625
13.47056183,-4.408632202,-4.903652802,1.049168243,6.677020495
13.48057483,-3.201242981,-4.285288696,1.524429932,5.561972892
13.49058883,-2.261197815,-3.669469299,1.63340332,4.609341266
13.50060183,-1.403930511,-3.015479279,1.407822418,3.611938555
13.51061483,-0.702189789,-2.334245911,0.993334351,2.632202044
13.52062883,0.001047821,-1.659449158,0.543070679,1.746052223
13.53064183,0.94423645,-0.930764465,0.142503662,1.333496253
13.54065483,1.807341614,-0.022602997,-0.35221756,1.841480875
13.55066883,2.605032806,1.027762756,-0.939446411,2.95381986
13.56068183,3.638334045,1.861379242,-1.483115845,4.347624629
13.57069483,4.744982758,2.450554047,-1.775906982,5.627958965
13.58070883,5.744304657,2.675685883,-1.88967041,6.612653415
13.59072183,6.487808533,2.591411133,-1.836680603,7.223604838
13.60073483,6.740782471,2.382595367,-0.797691193,7.193832097
13.61074883,6.962920532,2.638114014,0.665066986,7.475575027
13.62076183,6.643335114,3.298840027,2.358196106,7.783144341
13.63077483,5.97677124,4.043691101,3.797602844,8.154447838
13.64078883,5.99203949,5.141957245,4.498595123,9.087442965
13.65080183,7.304360504,6.509513397,4.281995544,10.68002495
13.66081483,9.343719635,8.248147888,3.9362146,13.07022668
13.67082883,12.0647612,10.4735701,4.587210846,16.62217305
13.68084183,15.19624924,13.12201263,6.81921936,21.20412599
13.69085483,19.45773743,16.36412064,11.14492401,27.75963474
13.70086883,24.27337326,19.56102264,16.51156403,35.27693301
13.71088183,31.26398621,23.23692856,23.89031982,45.69616027
13.72089483,39.7483429,26.65611832,30.52542206,56.76513717
13.73090883,46.97890686,29.51337662,34.33125778,65.24333184
13.74092183,52.16083099,31.49645279,35.94250717,70.74349899
13.75093483,53.65068283,30.93347351,34.39292953,70.83889577
13.76094883,47.81506805,28.02831482,28.60805923,62.37217503
13.77096183,37.46409302,23.70275986,20.89340195,49.00931886
13.78097483,27.77279617,19.79603394,15.04162079,37.27548152
13.79098883,21.06883713,16.77830933,11.79307617,29.40211229
13.80100183,16.55826691,14.43074112,10.01657043,24.14030189
13.81101583,13.212724,11.88214096,9.099277954,19.96392267
13.82102883,10.08767258,9.29402298,7.58802063,15.67539659
13.83104183,7.059320068,6.690636749,5.564229126,11.2053231
13.84105583,3.952680359,4.404291229,3.483705597,6.867144089
13.85106883,1.360670471,2.470163269,1.600920868,3.242850341
13.86108183,-0.359402618,0.817599792,0.418080597,0.986119186
13.87109583,-1.51754425,-0.612376556,-0.251776428,1.655698333
13.88110883,-2.171983337,-1.792372742,-0.808618469,2.92984223
13.89112183,-2.436333618,-2.850671997,-1.272503815,3.959964431
13.90113583,-2.544408875,-3.893852692,-1.27774292,4.823767436
13.91114883,-2.755769348,-4.662204895,-0.803379364,5.475019414
13.92116183,-2.845133514,-5.423970795,-0.274229736,6.13102323
13.93117583,-2.850821686,-6.201004944,0.323028259,6.832568613
13.94118883,-3.006497955,-6.811884613,0.741707611,7.482708876
13.95120183,-3.635340271,-7.114255829,0.654888153,8.016059716
13.96121583,-4.213587799,-6.971901855,0.358354797,8.154149605
13.97122883,-4.592150574,-6.747518463,-0.209863586,8.164612362
13.98124183,-4.849016418,-6.675069122,-1.257684631,8.345734159
13.99125583,-5.044360199,-6.478827209,-2.513572998,8.58713113
14.00126883,-5.443130951,-5.990093536,-3.721710663,8.908424405
14.01128183,-5.897585907,-5.577551422,-4.692591705,9.376087473
14.02129583,-6.180048523,-5.177433472,-5.323978729,9.661447439
14.03130883,-6.419700165,-4.909939728,-5.397176514,9.718516999
14.04132183,-6.566844177,-5.021906891,-4.899311829,9.609695503
14.05133583,-6.571035461,-5.362149353,-3.934717712,9.349500318
14.06134883,-6.262676697,-5.68547699,-2.589016113,8.845833621
14.07136283,-5.712420959,-5.991740112,-1.166075134,8.360169497
14.08137583,-5.118156738,-6.170318756,0.130827942,8.017822516
14.09138883,-4.604425049,-6.067033539,1.15020813,7.702766044
14.10140283,-4.170327759,-5.826932831,1.591191101,7.340072816
14.11141583,-3.948788452,-5.605543213,1.322499847,6.983126148
14.12142883,-3.7676651,-5.336552582,0.625698853,6.562438024
14.13144283,-3.097808075,-5.007087708,0.083226929,5.88848613
14.14145583,-2.04175415,-4.551884308,-0.189356232,4.99242091
14.15146883,-0.638123016,-3.907923431,-0.395926666,3.979425141
14.16148283,0.513582001,-2.815644836,-0.765358429,2.962667015
14.17149583,1.22625,-1.532662811,-1.760189667,2.636477199
14.18150883,2.09908493,-0.476010132,-3.123255157,3.793081329
14.19152283,3.002156982,0.359851685,-4.491559753,5.414475856
14.20153583,4.045337677,1.122815094,-4.919968872,6.467732552
14.21154883,5.503156128,1.825753326,-3.912414093,6.994646997
14.22156283,8.134983215,2.931503906,-1.700463867,8.812675214
14.23157583,12.04709793,4.874762878,1.647024994,13.09994553
14.24158883,17.20836502,7.084467773,5.280718689,19.34434026
14.25160283,22.74475204,8.700058136,8.285121002,25.72271345
14.26161583,27.38510239,10.35307068,10.09500732,30.96835608
14.27162883,33.4856662,13.72825195,12.88086411,38.41446866
14.28164283,44.53404099,18.16442688,18.15604431,51.40884316
14.29165583,59.24784348,22.47980301,25.20862839,68.19914549
14.30166883,71.59072632,26.93648529,30.78138977,82.45180587
14.31168283,73.50359848,30.34624466,30.31570816,85.10414629
14.32169583,65.17626526,29.80437149,23.85184982,75.53248873
14.33170983,53.19009064,25.09755936,15.85652618,60.91389538
14.34172283,40.40712296,20.16381912,9.519154816,46.1511592
14.35173583,29.4698172,16.87515793,5.769602051,34.44603589
14.36174983,22.76496002,15.0627269,4.89332428,27.7321793
14.37176283,18.3007933,13.19176758,5.970035248,23.33630408
14.38177583,14.23898987,10.83656525,5.820196838,18.81634051
14.39178983,10.26684998,8.295000458,4.682861938,14.00515751
14.40180283,6.259832611,5.630990295,2.889740753,8.901918762
14.41181554,2.563569031,3.261118469,1.158590698,4.306868033
14.42182954,-0.599353638,1.118324432,-0.238603821,1.291048451
14.43184254,-2.758463745,-0.715063019,-1.136436768,3.067886224
14.44185554,-4.06255188,-2.017953644,-1.778601379,4.872359547
14.45186954,-4.737049255,-3.064876556,-2.034718781,5.997764956
14.46188254,-4.506678314,-3.722309418,-1.938468933,6.158197677
14.47189554,-3.818858643,-4.165687408,-1.405577087,5.823425097
14.48190954,-2.915487213,-4.254752197,-0.838855591,5.225577542
14.49192254,-2.217788086,-4.343068542,-0.723445587,4.929929196
14.50193554,-2.23605011,-4.411027222,-1.534459076,5.177996321
14.51194954,-3.351829834,-3.930825806,-2.666405182,5.813421655
14.52196254,-4.719385986,-3.154839478,-3.229085083,6.530896316
14.53197554,-5.834566956,-2.780318298,-3.769461365,7.482057229
14.54198954,-6.882537689,-3.10184967,-4.196074219,8.637003836
14.55200254,-7.753276978,-3.564986572,-4.335434418,9.571751394
14.56201554,-8.740623779,-3.846551056,-4.333787842,10.48695266
14.57202954,-9.611662445,-4.155209198,-4.410727844,11.36240901
14.58204254,-9.743538208,-4.689448242,-4.221371613,11.6080765
14.59205654,-9.191486206,-5.28296402,-3.330124969,11.11228419
14.60206954,-8.166717224,-5.462291107,-1.692680054,9.969807427
14.61208254,-7.03806427,-5.388943634,-0.026794281,8.86429806
14.62209654,-5.908662872,-5.215304718,1.131347351,7.961887155
14.63210954,-4.949307861,-4.998854828,1.616937561,7.217941879
14.64212254,-4.370760956,-4.609664154,1.61124939,6.553524208
14.65213654,-3.915258179,-4.049379272,1.400487671,5.804143762
14.66214954,-3.481759644,-3.538791046,0.936003571,5.051910032
14.67216254,-3.060086517,-3.160677338,0.44233017,4.421500504
14.68217654,-2.668201447,-2.823877716,0.119451599,3.886882169
14.69218954,-2.280208282,-2.528691559,-0.08427475,3.405984886
14.70220254,-1.884730682,-2.330952759,-0.258662109,3.008730064
14.71221654,-1.231489105,-2.209405518,-0.369431763,2.556270327
14.72222954,-0.15328125,-2.177821198,-0.342936859,2.209978733
14.73224254,1.2859758,-1.836231537,-0.081280975,2.243231288
14.74225654,3.347937927,-0.814007263,0.110619965,3.447250058
14.75226954,6.263874207,1.04722229,0.027093658,6.35086834
14.76228254,10.01342697,3.946992188,-0.596210175,10.77974645
14.77229654,14.2292601,6.993307343,-2.473306732,16.04666435
14.78230954,18.60376328,9.259594574,-3.729943542,21.1128534
14.79232254,22.35301666,10.57850189,-1.791175232,24.79456321
14.80233654,24.20167236,10.60439804,2.833308105,26.57445837
14.81234954,24.28564774,11.82810333,6.893315277,27.87856721
14.82236254,25.30832108,18.39734253,8.204289093,32.34630871
14.83237654,30.1639238,27.06162506,8.943751373,41.4992113
14.84238954,38.50487869,33.02312805,9.921518097,51.68741811
14.85240354,44.50185791,35.83697662,12.13496521,58.41199904
14.86241654,45.19671295,36.23769333,16.91437637,60.34906302
14.87242954,41.22382462,34.45460129,20.98456238,57.67907007
14.88244354,36.19398422,31.65841599,22.86719742,53.24630048
14.89245654,32.37976593,28.68874146,22.60404465,48.81020347
14.90246954,28.56150604,25.90677658,20.00814285,43.44245021
14.91248354,23.82670212,23.19711136,17.15866837,37.41974892
14.92249654,19.23500061,20.54672287,15.49697388,32.12957
14.93250954,15.87673416,17.56312729,13.81611923,27.41202799
14.94252354,12.85511765,14.25770096,11.70805298,22.48587536
14.95253654,10.10817993,10.95032867,9.307195587,17.57011353
14.96254954,7.811056824,7.768994293,6.923552399,13.01174311
14.97256354,5.788163452,4.975353699,4.664749603,8.945214891
14.98257654,4.102069702,2.405946808,2.647095337,5.442671183
14.99258954,2.723735962,-0.032033386,0.731229401,2.820365254
15.00260354,1.761387177,-2.120939484,-1.018332367,2.93902533
15.01261654,1.195114746,-3.7278479,-2.776426392,4.799342948
15.02262954,0.648002472,-4.885839844,-4.714895325,6.820672702
15.03264354,-0.062719574,-5.396128693,-6.277795258,8.278457097
15.04265654,-0.954864349,-5.501659241,-6.449637909,8.530993464
15.05266954,-1.64283371,-5.567073212,-5.433101807,7.950459231
15.06268354,-1.863175507,-5.634582825,-4.108356628,7.21793189
15.07269654,-1.727407837,-5.777685242,-3.215762787,6.834231112
15.08270954,-1.660946045,-6.206992493,-3.059188385,7.116469008
15.09272354,-2.001936951,-6.678511963,-3.317850494,7.721295584
15.10273654,-2.528242493,-7.163204041,-3.817361755,8.501514747
15.11275054,-3.428769836,-7.416627045,-4.387675781,9.274401224
15.12276354,-4.230352936,-7.24283844,-5.150040436,9.842637407
15.13277654,-4.7364505,-6.637646942,-6.132148132,10.20272321
15.14279054,-5.561235352,-5.771398315,-7.225025482,10.79061492
15.15280354,-6.123466187,-5.220843201,-8.233179016,11.51257046
15.16281654,-5.87154007,-5.218897247,-8.264763336,11.40255166
15.17283054,-5.435347137,-5.496869202,-6.793772278,10.29144845
15.18284354,-5.320984955,-6.081403656,-4.711452484,9.353830008
15.19285654,-5.289700012,-6.297703857,-2.336191864,8.549841666
15.20287054,-5.117557983,-6.148015137,-0.032632141,7.999284636
15.21288354,-4.923561401,-5.942043457,1.524429932,7.865953466
15.22289654,-4.542453918,-5.734125824,2.322121124,7.675046129
15.23291054,-4.159849548,-5.472619629,2.484383698,7.309314347
15.24292354,-3.720513153,-5.169949036,2.249821472,6.755167489
15.25293654,-3.071013794,-4.711751862,1.609004059,5.849839775
15.26295054,-2.445165253,-4.112697601,0.63423111,4.826527092
15.27296354,-1.869312744,-3.661535797,-0.493074646,4.140567248
15.28297654,-1.006806335,-3.351231079,-1.457519073,3.790616123
15.29299054,0.247884521,-2.921774139,-1.910327454,3.499651674
15.30300354,1.73638916,-2.432441711,-1.76677597,3.471788779
15.31301654,3.48924408,-1.89550827,-1.116977234,4.124974423
15.32303054,5.412444763,-1.105451202,-0.491278381,5.545983693
15.33304354,7.67573822,0.043559418,0.358205109,7.68421535
15.34305754,9.764794006,1.806144104,1.471290436,10.03882732
15.35307054,11.40598114,3.604055328,2.633623352,12.24833019
15.36308354,13.93871429,6.154152374,5.062173157,16.05574491
15.37309754,19.69050339,10.82982925,8.907676392,24.17328741
15.38311054,29.01521255,17.62599655,11.40687927,35.8144553
15.39312354,41.28070633,25.53839264,10.81411194,49.73179296
15.40313754,52.48355988,33.35049728,8.770262146,62.79886324
15.41315042,58.80416611,37.9008847,8.035290527,70.4199752
15.42316342,57.85229553,37.21396317,10.36280045,69.56403371
15.43317742,49.01123062,32.74500641,16.75750259,61.27927925
15.44319042,36.45324509,27.65050049,24.66735397,51.97949217
15.45320342,25.19560547,23.51130798,29.79958145,45.55892001
15.46321742,18.8967041,21.26627655,30.49668182,41.70596536
15.47323042,17.96803528,20.60046112,28.16677689,39.25043452
15.48324342,18.47503098,20.32488419,23.30578537,36.02203934
15.49325742,18.05695038,19.65353027,18.13972824,32.27017896
15.50327042,17.99767365,18.6206781,13.6785553,29.28734854
15.51328342,16.88234299,17.04206085,10.13721954,26.04243773
15.52329742,14.56097031,14.70077957,8.244106293,22.27330386
15.53331042,11.27081223,11.94156738,7.003486176,17.85164022
15.54332342,8.036787415,9.065897369,6.051914978,13.54275164
15.55333742,5.436844025,6.026168518,5.495522003,9.801772393
15.56335042,2.83630188,3.175945587,4.875810699,6.473389275
15.57336342,0.178878021,0.360300751,3.79924942,3.820485589
15.58337742,-2.235750732,-2.56835907,2.701881409,4.346862408
15.59339042,-4.086053009,-5.28176651,1.753303986,6.904126413
15.60340342,-5.214705963,-7.344776459,1.163979492,9.082606882
15.61341742,-5.859864349,-8.795110474,0.916094971,10.6080728
15.62343042,-6.243516541,-9.744136963,0.603395233,11.58851974
15.63344442,-6.5864534,-10.34992722,-0.275277557,12.27102846
15.64345742,-7.008575592,-10.71456894,-1.932331696,12.94820548
15.65347042,-7.243137817,-10.90901459,-3.89400238,13.6613652
15.66348442,-7.533533936,-10.87802902,-5.785469055,14.44151312
15.67349742,-8.043822784,-10.57281372,-7.454198914,15.23327136
15.68351042,-8.849896545,-10.2452948,-8.966504059,16.23837829
15.69352442,-9.75970459,-9.851463776,-9.91418335,17.04682386
15.70353742,-10.40576111,-9.251062317,-10.07360184,17.18544361
15.71355042,-10.05998016,-8.496631165,-9.161847839,16.0416769
15.72356442,-8.745862885,-7.776927795,-7.121740265,13.69999664
15.73357742,-7.20182373,-7.207811279,-4.763244781,11.24754681
15.74359042,-5.648952942,-6.749763794,-2.729274445,9.215146207
15.75360442,-4.257446594,-6.297105103,-1.084494781,7.678249352
15.76361742,-3.13702652,-5.940995636,0.022902374,6.718399292
15.77363042,-2.45489502,-5.652395782,0.64006897,6.195625547
15.78364442,-2.191293182,-5.270689545,1.030457153,5.800325511
15.79365742,-2.106719055,-4.890480194,1.319356384,5.485960533
15.80367142,-2.066452789,-4.524640961,1.312171326,5.144355795
15.81368442,-1.998045044,-4.180805969,1.07057373,4.755780763
15.82369742,-1.687440948,-3.836372223,0.925076294,4.291966325
15.83371142,-1.271455994,-3.51499054,0.728684692,3.808246344
15.84372442,-0.657283173,-3.26456131,0.624950409,3.388206713
15.85373742,0.501008148,-2.861898651,0.808917847,3.015927906
15.86375142,2.032024384,-2.271825714,1.118773499,3.246839896
15.87376442,3.721411285,-1.384470978,1.279988251,4.171813966
15.88377742,5.361550598,-0.199085999,1.131946106,5.483353175
15.89379142,7.29552887,1.134790192,1.087937622,7.46298188
15.90380442,10.06267456,2.328408051,1.161434784,10.39364393
15.91381742,13.69472168,3.567680969,2.014211426,14.29443238
15.92383142,17.27048584,5.572012939,4.522844696,18.70222269
15.93384442,20.08628036,8.211773529,8.088280334,23.1584145
15.94385742,23.46685043,11.29087051,11.86537582,28.61754653
15.95387142,29.75422577,15.08772491,16.78624283,37.34610211
15.96388442,37.65270081,19.43618225,23.24920303,48.33235459
15.97389742,44.1024884,23.90019928,28.87315796,57.87839199
15.98391142,46.70557526,26.83828949,31.38583282,62.34400569
15.99392442,45.60940475,26.27291519,31.78146011,61.48613731
16.00393742,40.70186005,23.87565033,30.6987616,56.29477821
16.01395142,34.18291626,21.72133026,27.71307037,49.0744559
16.02396442,28.50222931,19.67433701,23.41221405,41.804167
16.03397742,24.33429657,18.32564163,19.60248642,36.2249169
16.04399142,21.6292717,17.81460434,17.29308884,32.9277458
16.05400442,19.79019608,17.12079712,15.85802307,30.59820992
16.06401842,18.08823532,15.59516968,14.6724884,28.0299035
16.07403142,16.25799133,13.52572311,13.31511108,24.99119147
16.08404442,14.12417862,11.18414246,11.83214493,21.55405108
16.09405842,11.77451477,8.70305191,10.0661174,17.76820278
16.10407142,9.400301971,6.31027771,8.139922943,13.94430448
16.11408442,7.174281006,4.10820694,5.911357269,10.16325819
16.12409842,4.982688446,2.048490143,3.897145844,6.64915346
16.13411142,3.081192627,0.249830475,2.703977051,4.107025099
16.14412442,1.638642426,-1.376836853,1.851499786,2.829996498
16.15413842,0.695902863,-2.824476471,1.182241516,3.140006868
16.16415142,-0.31240036,-4.048181763,0.684376831,4.117492103
16.17416442,-1.23792572,-5.065017242,0.416284332,5.2306933
16.18417842,-1.593286743,-5.702391815,0.340242462,5.930564897
16.19419142,-1.549278259,-6.023474121,-0.173489227,6.221945204
16.20420442,-1.602717133,-5.959407349,-1.067430267,6.262798538
16.21421842,-1.911375275,-5.500761108,-2.123184814,6.198358006
16.22423142,-2.173180847,-4.945415955,-3.301085358,6.330641239
16.23424442,-2.547851715,-4.458478546,-4.407584381,6.767302224
16.24425842,-3.10304718,-3.91510849,-5.266947327,7.259318868
16.25427142,-3.622017975,-3.46349762,-5.991590424,7.811144972
16.26428442,-3.860472107,-3.164569244,-6.519542542,8.211100921
16.27429842,-3.907474365,-2.967429199,-6.672823792,8.282546065
16.28431142,-4.057312775,-2.892135773,-6.45652359,8.155546159
16.29432542,-4.223766632,-2.953059082,-6.011349335,7.918148984
16.30433842,-4.158202972,-3.159030762,-5.259013824,7.411299057
16.31435142,-3.945644989,-3.473526764,-4.451293488,6.888215754
16.32436542,-3.833528137,-3.797303467,-3.609893188,6.492055178
16.33437842,-3.697012024,-4.031566315,-2.697241058,6.098896145
16.34439142,-3.411106567,-4.071533203,-1.983974304,5.670025104
16.35440542,-3.175795898,-4.006867676,-1.497635651,5.327624302
16.36441842,-3.005749512,-3.894750824,-1.172960815,5.05761319
16.37443142,-2.760409698,-3.775598602,-1.041683807,4.791671072
16.38444542,-2.506986694,-3.635190582,-1.099613342,4.550685922
16.39445842,-2.42555603,-3.522924042,-1.099313965,4.416198258
16.40447142,-2.388882294,-3.381767578,-1.130598907,4.292011703
16.41448567,-2.401605835,-3.114423523,-1.225202179,4.119279651
16.42449867,-2.562670898,-2.737806702,-1.405726776,4.004863973
16.43451167,-2.657723236,-2.277513885,-1.58550293,3.842444774
16.44452567,-2.816243591,-1.585353241,-1.546434174,3.582740783
16.45453867,-2.847378845,-0.64470932,-1.522633667,3.292663007
16.46455167,-2.612217865,0.343385925,-1.468745728,3.016423392
16.47456567,-2.63856308,1.4929953,-1.67441803,3.463340271
16.48457867,-1.716779938,2.364483032,-1.975292358,3.527023287
16.49459267,3.210074615,2.521207123,-0.280965729,4.091455259
16.50460567,16.39106461,3.855532379,8.046517181,18.66222301
16.51461867,36.97999969,8.590186615,22.94772995,44.36113156
16.52463267,56.65987518,15.05284744,33.6501741,67.59633044
16.53464567,69.18882111,18.51005814,34.95920197,79.69856348
16.54465867,68.56162537,15.10014908,34.07364349,78.03668468
16.55467267,53.85590607,12.11131439,35.52278,65.64305335
16.56468567,38.96023178,9.677226105,31.41606995,50.97565906
16.57469867,31.71963867,8.372090149,29.35111404,44.01948735
16.58471267,26.22396698,10.9871521,30.72375961,41.86123935
16.59472567,20.92393845,12.52280869,31.17581955,39.57983909
16.60473867,15.69725739,10.96380066,29.17508011,34.89690694
16.61475267,11.75625275,9.127718811,25.40382248,29.44280771
16.62476567,9.481732635,8.452622681,20.99459152,24.53819384
16.63477867,8.37897583,8.041876831,16.56949356,20.23430591
16.64479267,7.660469971,7.163353729,12.49152374,16.3105672
16.65480567,6.740932159,5.82348999,9.264833679,12.85263962
16.66481867,5.756579132,4.301754456,7.097041626,10.10006409
16.67483267,4.443210297,2.598296814,5.293142853,7.383131133
16.68484567,2.701582031,0.958456879,3.074007568,4.203178272
16.69485867,1.000669098,-0.297132111,0.572409668,1.190495259
16.70487267,-0.216300201,-1.145118713,-1.519789581,1.915161355
16.71488567,-0.977916412,-1.700763245,-3.078348541,3.650362429
16.72489967,-1.40527771,-1.963916016,-3.809877319,4.510757891
16.73491267,-1.682052155,-2.020947418,-3.567830658,4.432036047
16.74492567,-2.200124817,-2.237696686,-3.016078033,4.352535166
16.75493967,-2.962489471,-2.611768799,-2.511926422,4.680539977
16.76495267,-4.027824097,-3.031495972,-2.649190979,5.69487029
16.77496567,-5.111869812,-3.450474701,-3.463796997,7.073533648
16.78497967,-6.254743195,-3.843557281,-4.457281036,8.588486435
16.79499267,-7.294031982,-4.26612854,-5.109923859,9.874921626
16.80500567,-8.063282318,-4.689897308,-5.149890747,10.65518809
16.81501967,-8.172704773,-5.100044403,-4.373006287,10.57954348
16.82503267,-7.817194061,-5.407654724,-3.126248932,10.00623231
16.83504567,-7.378007355,-5.640121307,-1.991159363,9.497930116
16.84505967,-6.990762634,-5.870791626,-1.181193695,9.205008152
16.85507267,-6.47403717,-5.921087036,-0.505648499,8.787952513
16.86508567,-5.965544586,-5.830375671,-0.055983582,8.341710666
16.87509967,-5.410199432,-5.63862442,0.184715881,7.816550595
16.88511267,-4.724325714,-5.368286591,0.244741058,7.155253494
16.89512667,-4.004472656,-5.03837265,0.128133545,6.437190258
16.90513967,-3.394191742,-4.715344391,-0.152981873,5.811919972
16.91515267,-2.812052307,-4.497547302,-0.498613129,5.327681012
16.92516667,-2.245929565,-4.327500916,-0.891845398,4.95649594
16.93517967,-1.873653717,-4.196373596,-1.397493896,4.803448636
16.94519267,-1.34091156,-3.915258179,-1.722767487,4.482769036
16.95520667,-0.150437164,-3.446433105,-1.583856354,3.795936438
16.96521967,1.811981964,-2.913092194,-0.981508942,3.568297153
16.97523267,4.423900452,-2.351460114,0.000149689,5.010015957
16.98524667,7.214996338,-2.213596802,1.001417542,7.613082165
16.99525967,9.061855774,-2.184706879,1.497635651,9.441032081
17.00527267,10.97457825,-0.819695435,2.365231476,11.25644652
17.01528667,15.73363174,3.658691711,4.870122528,16.87161185
17.02529967,22.77618668,9.310937805,9.407337341,26.34285934
17.03531267,30.91446304,11.57812317,16.56021286,36.93233829
17.04532667,35.68234818,11.15285751,22.37966125,43.57138327
17.05533967,32.79126022,10.21296204,21.97834579,40.77522562
17.06535267,26.32410873,8.509354706,19.82956421,34.03791173
17.07536667,22.51393204,6.764882355,20.19181091,30.98951431
17.08537967,22.58772858,6.270909576,23.68838974,33.32670997
17.09539367,24.98214935,6.718478851,28.45762207,38.45883511
17.10540667,26.74368622,6.05520813,31.90974335,42.07281805
17.11541967,25.64676727,4.716541901,32.43395325,41.61686872
17.12543367,22.50944138,2.785258026,30.15733749,37.73456795
17.13544667,19.29188232,-0.310454407,29.49975494,35.24923612
17.14545967,15.81625992,-3.458857269,31.87950623,35.75500928
17.15547367,10.94778397,-4.839286652,35.67052277,37.62524237
17.16548667,7.154821472,-4.44395874,37.16486526,38.10731491
17.17549967,5.890101471,-3.68339035,33.86827057,34.57340613
17.18551367,6.383924561,-1.524280243,26.64638855,27.44281228
17.19552667,6.91172699,0.844543762,18.89206375,20.13443063
17.20553967,6.982978821,2.315983887,13.28068268,15.18230243
17.21555367,5.57665329,2.737058258,9.385333099,11.2550001
17.22556667,3.77709549,2.563119965,6.203699341,7.702072435
17.23557967,2.615061951,2.249372406,4.028871918,5.303775462
17.24559367,1.504072266,1.579216003,2.027683411,2.977861075
17.25560667,-0.061821442,1.187031555,0.244741058,1.21357488
17.26561967,-1.008153534,1.368154907,-3.409160614,3.809277817
17.27563367,-1.850751343,0.879570923,-7.306605835,7.588505411
17.28564667,-3.392694855,0.288001099,-10.2731369,10.82269212
17.29566067,-4.498595123,-0.328417053,-12.77488449,13.54780018
17.30567367,-4.640799408,-1.342408447,-15.27932648,16.02488369
17.31568667,-3.69401825,-2.226170654,-16.43656998,16.99301148
17.32570067,-2.933749237,-2.983894958,-14.83669693,15.41551457
17.33571367,-2.89483017,-3.767964478,-12.26998444,13.15789178
17.34572667,-3.006048889,-4.877008209,-10.34154465,11.82239759
17.35574067,-3.083887024,-5.837411041,-8.54632782,10.79932618
17.36575367,-3.238665161,-6.406527557,-6.648125153,9.784176788
17.37576667,-3.176694031,-6.687193909,-5.008734283,8.938532679
17.38578067,-2.891387329,-6.681056671,-3.720662842,8.175571595
17.39579367,-2.438578949,-6.26342514,-2.740052032,7.258446591
17.40580667,-1.765578461,-5.589227142,-2.320923615,6.304237763
17.41582092,-0.988843689,-4.625531158,-2.842588806,5.51848362
17.42583392,0.197439423,-3.798950043,-3.769311676,5.355251093
17.43584692,2.093097382,-3.197201385,-4.533173218,5.928980753
17.44586092,4.189338226,-2.5215065,-4.609364777,6.71973165
17.45587392,6.380930786,-1.188378754,-3.86825592,7.555919906
17.46588692,8.146808624,-0.028440857,-2.129471741,8.420567056
17.47590092,8.691825256,0.462987213,0.872535553,8.747771244
17.48591392,8.770262146,0.915496216,4.327949982,9.822768575
17.49592792,9.326056366,1.726360016,7.908803558,12.34928419
17.50594092,10.38300842,2.642754364,11.13324829,15.45122105
17.51595392,11.3998439,4.01689682,14.38134384,18.78603076
17.52596792,12.09544739,5.87154007,16.87665482,21.57768079
17.53598092,12.15038315,7.39611969,17.21510101,22.33145987
17.54599392,11.8337915,8.211923218,16.42115204,21.84327216
17.55600792,11.50747009,8.617879028,16.21143814,21.66795868
17.56602092,10.96604599,8.579858093,17.36703506,22.25942579
17.57603392,9.699529724,8.091423798,20.12415161,23.75991359
17.58604792,8.150550842,7.345075836,23.78014893,26.18925545
17.59606092,7.65822464,7.173682251,26.89053085,28.86539054
17.60607392,9.110205231,7.364086304,29.26519272,31.52264442
17.61608792,11.34311188,7.675588531,30.87823837,33.77937909
17.62610092,13.40013428,7.803722076,31.69284439,35.28311299
17.63611392,14.81154922,8.117769012,32.120056,36.29019374
17.64612792,15.18068161,8.482111359,32.09865051,36.50647438
17.65614092,14.12477737,8.455466766,31.90525269,35.90194149
17.66615492,11.72721313,7.781717834,31.12836823,34.16223015
17.67616792,9.056017914,6.780449982,29.28210754,31.39152409
17.68618092,6.979236603,5.888155518,26.4958017,28.02512492
17.69619492,5.436993713,5.221441956,23.02242462,24.22511903
17.70620792,4.41821228,4.680017853,19.14967804,20.20231016
17.71622092,3.636238403,4.183200989,15.267052,16.24205274
17.72623492,3.000660095,3.449277191,11.99156342,12.83351344
17.73624792,2.459984436,2.542163544,9.451645203,10.09196294
17.74626092,2.256856842,1.613943787,7.386988678,7.890869349
17.75627492,2.235451355,0.699794769,5.503455505,5.98121877
17.76628792,2.192490692,-0.322130127,3.634741516,4.257009413
17.77630092,1.995500336,-1.32923584,1.64043869,2.905155521
17.78631492,1.696272583,-1.771865387,-0.555045776,2.514940047
17.79632792,1.37369339,-2.092947693,-2.527943115,3.557802688
17.80634092,0.682281189,-2.440524902,-4.183650055,4.891277666
17.81635492,-0.16151413,-2.511776733,-5.667963409,6.201686737
17.82636792,-1.038240967,-2.351460114,-6.996750183,7.453980285
17.83638092,-1.504671021,-2.039359131,-8.049660645,8.439197654
17.84639492,-1.428329773,-1.488504639,-9.232051849,9.45973326
17.85640792,-0.951571198,-1.213975525,-10.34364029,10.45801696
17.86642192,-0.275127869,-1.261127472,-10.6301445,10.70822627
17.87643492,-0.29249176,-1.870061188,-9.60178299,9.786568186
17.88644792,-1.159339142,-2.245330811,-7.950267334,8.34220165
17.89646192,-0.945883026,-2.648741913,-6.35473526,6.949330086
17.90647492,-1.073417816,-3.34060318,-5.227130127,6.295613138
17.91648792,-2.021546173,-3.74072113,-4.584815826,6.253013647
17.92650192,-3.229085083,-3.998335419,-4.430636444,6.785588839
17.93651492,-3.535348206,-3.969595184,-4.936734009,7.254496229
17.94652792,-3.294499054,-3.632795563,-5.363945618,7.26793232
17.95654192,-2.633024597,-3.521277466,-5.171595612,6.788049402
17.96655492,-1.393751678,-3.771107941,-4.260739746,5.858131274
17.97656792,-0.070802765,-3.788022766,-2.657723236,4.627917708
17.98658192,0.837059326,-3.351829834,-0.85532135,3.559073779
17.99659492,1.236129456,-2.798131256,0.868344269,3.179870489
18.00660792,1.20170105,-2.354603577,1.943109283,3.280840914
18.01662192,1.442849579,-2.31912735,2.689008179,3.832875103
18.02663492,2.223027191,-2.398761749,3.717220001,4.951124353
18.03664892,3.680246887,-2.157164154,5.081483002,6.634684908
18.04666192,5.054089966,-1.493444366,6.575675812,8.426963501
18.05667492,6.773414612,-0.318537598,8.853189697,11.15166263
18.06668892,9.060358887,1.083746338,11.8855838,14.98438226
18.07670192,11.57857224,2.196083221,15.27962585,19.2964526
18.08671492,13.34684509,3.186872864,18.05889633,22.68078855
18.09672892,13.62376923,4.190535736,19.44426544,24.10906751
18.10674192,13.76627289,4.654870148,20.14540741,24.8397972
18.11675492,13.88228165,4.381239166,21.12556915,25.65546087
18.12676892,13.61403946,3.958667908,22.84504349,26.88696959
18.13678192,13.2100296,3.554658051,25.17255341,28.64957104
18.14679492,13.00765045,3.187621307,28.03235641,31.06723203
18.15680892,13.25134369,2.473306732,31.72472809,34.46989597
18.16682192,14.10681473,1.355431366,36.31852524,38.9855703
18.17683492,15.59322372,0.223036194,40.58285751,43.47604737
18.18684892,17.21225693,-0.042361908,42.48674835,45.84089188
18.19686192,18.3659079,0.372275848,42.71577209,46.49819725
18.20687492,18.35513031,0.838406525,41.81734039,45.67607352
18.21688892,16.30858612,1.065035248,39.01846069,42.30300883
18.22690192,12.80122971,0.970282288,34.61656448,36.92044781
18.23691592,8.801098022,0.731828156,29.08077621,30.39221025
18.24692892,5.302722931,0.690065002,23.79960846,24.39295847
18.25694192,2.842888184,0.835712128,19.49171677,19.7156651
18.26695592,1.293759613,0.744402008,16.16877686,16.23752731
18.27696892,0.266296234,0.232316895,13.74022705,13.7447708
18.28698192,-0.491877136,-0.59785675,11.70386169,11.72943964
18.29699592,-0.934806061,-1.669178925,9.881251831,10.0647483
18.30700892,-0.885857849,-2.825524292,7.993527374,8.524365756
18.31702192,-0.625399475,-4.048930206,5.927224274,7.205341623
18.32703592,-0.557740173,-5.132227478,3.535647583,6.257126882
18.33704892,-0.59785675,-5.855822754,-0.041164398,5.886406996
18.34706192,-0.622405701,-6.022875366,-4.148772583,7.339940768
18.35707592,-0.176483002,-6.0821521,-7.86299881,9.942357401
18.36708892,0.365689545,-6.09966568,-10.8557254,12.45738433
18.37710192,-0.222736816,-5.490282898,-12.89343796,14.01547575
18.38711592,-1.61708725,-4.124972076,-13.97957932,14.66489017
18.39712892,-2.021546173,-3.354823608,-13.90473495,14.44586946
18.40714292,-1.793420563,-3.39793396,-13.88317978,14.40503361
18.41715621,-1.370549927,-3.933669891,-13.81447266,14.42885376
18.42716921,-1.191671906,-4.448748779,-13.1848819,13.9661218
18.43718321,-1.404379578,-4.599784698,-11.70670578,12.65611558
18.44719621,-1.686393127,-4.627926178,-9.614805908,10.80306045
18.45720921,-2.010918274,-4.849764862,-7.570057983,9.212480089
18.46722321,-2.100581818,-5.250481567,-5.92647583,8.191649188
18.47723621,-2.064357147,-5.338348846,-4.618645477,7.354687273
18.48724921,-1.455423431,-4.763244781,-3.857029266,6.299478786
18.49726321,-0.32527359,-3.984863434,-3.88232666,5.572916632
18.50727621,-0.261356506,-3.281476135,-4.74004303,5.770996515
18.51728921,-0.897084503,-2.897225189,-5.268294525,6.078947409
18.52730321,-1.481020203,-3.035836945,-5.299429779,6.284399954
18.53731621,-1.969005432,-3.226091309,-5.328020325,6.532415182
18.54732921,-2.409389648,-2.722388763,-4.616250458,5.875910767
18.55734321,-2.417173462,-1.574425964,-2.827170868,4.039113737
18.56735621,-1.174906769,-0.844094696,0.268242188,1.471344841
18.57736921,0.876726837,-0.802032166,4.233646088,4.39723376
18.58738321,2.43139389,-0.756077728,8.572673035,8.942821296
18.59739621,3.921096039,-0.305814056,13.07516006,13.6538759
18.60741021,5.52276535,0.524359589,16.70092026,17.59819955
18.61742321,6.57358017,1.887425079,18.77800095,19.98468537
18.62743621,7.093598785,3.633843384,18.87993896,20.49331737
18.63745021,7.90281601,5.44552597,18.56379639,20.89791354
18.64746321,9.139394531,6.824907532,18.82575165,22.01174278
18.65747621,10.27403503,7.704628143,19.5270433,23.3714037
18.66749021,11.02996307,8.612041168,20.72455307,25.00668787
18.67750321,10.69181625,9.735305328,22.84399567,27.03588805
18.68751621,9.886490936,10.85886887,25.79151627,29.6792865
18.69753021,9.583371277,12.23480759,29.36009537,33.21967371
18.70754321,10.39079224,14.13271088,33.76244064,38.04739778
18.71755621,12.43284576,16.3593306,38.81353683,43.91689872
18.72757021,15.54143143,18.6896846,43.49415344,49.82551339
18.73758321,18.77261215,20.86421265,46.03586792,53.91685703
18.74759721,20.28416885,21.97505264,45.32200241,54.29948754
18.75761021,19.61850311,21.6412468,41.76794312,50.96852263
18.76762321,17.14055603,20.10888336,37.05110184,45.50769164
18.77763721,13.98272278,17.61806305,32.38006531,39.42564281
18.78765021,10.35247192,14.55812622,27.78716629,33.03391173
18.79766321,6.78763504,11.27799728,23.09502365,26.58280139
18.80767721,3.924089813,8.12630127,18.4242865,20.51559373
18.81769021,2.18919754,5.208119659,13.97493896,15.07368619
18.82770321,1.426683197,2.703378296,9.827663269,10.29206707
18.83771721,1.197360077,0.487685852,6.055657196,6.192131517
18.84773021,1.269060974,-1.411414948,2.781964874,3.36777916
18.85774321,1.296603699,-3.016976166,-0.24923172,3.293241987
18.86775721,0.847687225,-4.52000061,-3.0165271,5.499855897
18.87777021,0.233215027,-5.808221741,-4.943470001,7.630709318
18.88778321,-0.250878296,-6.831493835,-5.576952667,8.822394743
18.89779721,-0.253722382,-7.612120514,-5.490582275,9.389102592
18.90781021,-0.292641449,-8.127648468,-5.475314026,9.804252767
18.91782321,-0.76401123,-8.439001007,-5.929768982,10.34227303
18.92783721,-1.516795807,-8.655001831,-6.872957611,11.15559378
18.93785021,-2.311942291,-8.852590942,-7.906857605,12.09263581
18.94786421,-3.487747192,-8.622220001,-9.163045349,13.05635701
18.95787721,-4.559668121,-8.287216644,-10.20607635,13.91519054
18.96789021,-5.180726624,-7.843988342,-10.41953247,14.03334381
18.97790421,-5.60359726,-7.535779266,-9.994715881,13.7143216
18.98791721,-5.718857574,-7.406747589,-8.750652924,12.81168094
18.99793021,-5.727988586,-7.11410614,-7.238796844,11.65420693
19.00794421,-5.514532471,-6.80993866,-5.84923645,10.53560155
19.01795721,-5.102439423,-6.639892273,-4.62882431,9.568127923
19.02797021,-4.673132172,-6.468798065,-3.740122375,8.813173554
19.03798421,-4.347259827,-6.22256012,-3.252735901,8.258281497
19.04799721,-4.010609894,-5.96629303,-2.857857056,7.736212975
19.05801021,-3.815415802,-5.591472473,-2.594554596,7.249391403
19.06802421,-3.350332947,-5.210664368,-2.332749023,6.619476717
19.07803721,-2.379152527,-4.843328247,-1.452279968,5.588140331
19.08805021,-1.525926819,-4.277355194,-0.277073822,4.549834065
19.09806421,-0.727936249,-3.514691162,0.475860443,3.620688927
19.10807721,0.206271057,-2.820584564,0.551752625,2.881436446
19.11809121,1.066831512,-2.172582092,-0.028291168,2.420545974
19.12810421,1.559906158,-1.5129039,-0.939745789,2.367553079
19.13811721,2.142195282,-0.929417267,-1.534309387,2.794087038
19.14813121,3.026556244,-0.335153046,-1.342558136,3.327887109
19.15814421,4.512366486,0.539029083,0.135617981,4.546470707
19.16815721,7.143145752,1.844614105,2.800526276,7.891139325
19.17817121,10.57685532,3.763922882,6.77131897,13.11059665
19.18818421,13.14326843,6.242468719,10.88611221,18.17199383
19.19819721,15.28441589,8.345595245,14.33928131,22.55830928
19.20821121,18.05081314,10.27358597,17.54082367,27.1856381
19.21822421,21.82820801,12.97816177,22.48010239,33.91545888
19.22823721,27.16775436,16.58431274,29.07359116,43.10916386
19.23825121,32.79215836,19.64948868,32.82119797,50.38510783
19.24826421,36.24383057,21.46955383,32.36659332,53.12394337
19.25827721,37.41364792,21.69273972,30.57466965,52.96382191
19.26829121,37.93770813,21.0772197,30.43381256,53.00694139
19.27830421,37.73667618,20.56917618,31.13450546,53.07075624
19.28831721,35.78787872,19.81654129,30.84366028,51.23279176
19.29833121,32.26645157,18.43641129,30.06243484,47.79932161
19.30834421,28.35254059,17.11031891,28.44594635,43.65548573
19.31835821,24.43728241,16.02821915,26.14523071,39.21297833
19.32837121,20.79685272,14.84807327,23.41116623,34.65627024
19.33838421,17.51687347,13.24655365,20.39059753,29.96812486
19.34839821,14.35320236,11.1410321,16.75690384,24.71701521
19.35841121,11.38038437,8.844058685,12.94792465,19.3747071
19.36842421,8.648864594,6.478228455,9.519454193,14.40105242
19.37843821,6.178851013,4.166136475,6.670578461,10.00157537
19.38845121,3.804488525,1.62996048,4.188589783,5.888564212
19.39846421,1.437161407,-0.963695984,1.754351807,2.464121166
19.40847821,-1.147214355,-3.226091309,-0.847836914,3.527406036
19.41849079,-3.036435699,-5.069507904,-2.782264252,6.531527119
19.42850379,-3.678600311,-6.550827484,-3.590134277,8.32673436
19.43851779,-3.764970703,-7.63711853,-3.36634964,9.156030458
19.44853079,-3.854035492,-8.47956665,-2.96263916,9.774142978
19.45854479,-4.348457336,-9.08341095,-3.626957703,10.70384314
19.46855779,-5.266049194,-9.257199554,-5.39059021,11.93672822
19.47857079,-6.639892273,-9.065747681,-7.937992859,13.75818596
19.48858479,-7.746391296,-8.857830048,-10.67071014,15.88495471
19.49859779,-8.875343628,-8.610544281,-13.19131851,18.08104204
19.50861079,-9.799072723,-8.274044037,-14.89432709,19.65509121
19.51862479,-10.79180832,-8.098459167,-15.91221039,20.86256473
19.52863779,-11.29491211,-8.587192841,-15.98286346,21.37210436
19.53865079,-11.20494919,-9.484277344,-14.89163269,20.91083755
19.54866479,-11.08055786,-10.31040939,-13.62631393,20.36565088
19.55867779,-10.22748184,-11.04059097,-12.26953537,19.41745431
19.56869079,-8.700207825,-11.43846359,-9.995015259,17.50521053
19.57870479,-7.166497192,-11.67811523,-6.925049286,15.35230813
19.58871779,-5.708529053,-11.91641968,-4.03560791,13.81573353
19.59873179,-4.190236359,-11.83723434,-1.705104218,12.67223651
19.60874479,-2.534230042,-11.16782639,-0.015567627,11.45176451
19.61875779,-1.512155457,-10.0595311,0.7816745,10.20253866
19.62877179,-0.246986389,-8.84345993,1.28941864,8.940379536
19.63878479,1.131047974,-7.449857941,2.333347778,7.888229504
19.64879779,3.31021637,-5.398972778,4.280348969,7.643809702
19.65881179,7.113357697,-2.966082001,6.382128296,10.00645101
19.66882479,11.27799728,-0.568068695,9.159602509,14.54009088
